,time,img_sim,orientation.x,orientation.y,orientation.z,orientation.w,angular_velocity.x,angular_velocity.y,angular_velocity.z,linear_acceleration.x,linear_acceleration.y,linear_acceleration.z
0,85.489,0.984,-0.0007778141093194608,0.0004063774098216437,-0.7068946069819136,-0.7073183473174044,0.00046896061607318225,-0.0004464264379859697,-0.00048182159283660317,0.0,-0.0098066499999988,9.80665
1,85.536,0.988,-0.0007776407321845679,0.00040747201671266557,-0.7068930316612635,-0.7073199212635419,0.00045866695296741173,-0.0004547186853667093,-0.0004799383677014826,0.0,-0.0098066499999988,9.80665
2,85.6,0.99,-0.000779942350288452,0.00040739987936144,-0.7068910605995444,-0.707321888616346,0.0004569332716831318,-0.0004842958296649137,-0.00046977977035567235,0.0,-0.0098066499999988,9.80665
3,85.722,0.96,-0.0007843298097989815,0.0004072623675356662,-0.7068873032631425,-0.7073256388826288,0.0004536284417349728,-0.000540677260983372,-0.0004504149441652194,0.0,-0.0098066499999988,9.80665
4,85.779,0.986,-0.0007859429911828081,0.00040749767197850706,-0.7068855831803382,-0.7073273559849828,0.0004557466713013105,-0.0005535775402095222,-0.0004428163443226371,0.0,-0.0098066499999988,9.80665
5,85.899,0.994,-0.0007862274736819379,0.000410127507718279,-0.706882214153823,-0.7073307210369932,0.00048630176775623,-0.000484955932712185,-0.00043714344431646185,0.0,-0.0098066499999988,9.80665
6,86.006,0.984,-0.0007864811372436619,0.00041247244458624227,-0.7068792101051803,-0.7073337215417025,0.0005135467287618653,-0.00042376833269372883,-0.00043208510847762247,0.0,-0.0098066499999988,9.80665
7,86.083,0.99,-0.00078704313766583,0.00041398504537901187,-0.7068762480883176,-0.7073366801058983,0.0005203878634100948,-0.0004243786011700073,-0.0004463838710193605,0.0,-0.0098066499999988,9.80665
8,86.202,0.982,-0.0007879992112795859,0.00041628236313901454,-0.7068714858421427,-0.7073414368079909,0.0005280160770911085,-0.00043561919156343226,-0.0004726198262561008,0.0,-0.0098066499999988,9.80665
9,86.299,0.992,-0.0007882251263666808,0.0004179986220914942,-0.706867716132862,-0.7073452027452889,0.0005322906402871013,-0.0004582435684278663,-0.0004744019135832744,0.0,-0.0098066499999988,9.80665
10,86.42,0.982,-0.0007871047041941207,0.0004197433722160561,-0.7068632978088688,-0.7073496182571579,0.0005326986063737422,-0.000520575805567208,-0.0004269529869779921,0.0,-0.0098066499999988,9.80665
11,86.52,0.994,-0.0007862227178992427,0.0004211547212212296,-0.7068596179019421,-0.7073532957857013,0.0005327110548969358,-0.0005688565971795469,-0.0003902778388001025,0.0,-0.0098066499999988,9.80665
12,86.567,0.986,-0.0007864765708626876,0.00042135313988388525,-0.7068574567680386,-0.7073554549763771,0.0005277823423966768,-0.000542410847265275,-0.0004116224357858287,0.0,-0.0098066499999988,9.80665
13,86.719,0.976,-0.0007872975421487218,0.0004219948342822611,-0.7068504675690318,-0.707362437890903,0.0005118426764383914,-0.00045688416669145335,-0.0004806517707183949,0.0,-0.0098066499999988,9.80665
14,86.806,0.986,-0.000789300123318788,0.0004209001835387767,-0.7068469283173865,-0.7073659729812396,0.0005556266312858477,-0.0004307693552292617,-0.0004907533402584372,0.0,-0.0098066499999988,9.80665
15,86.897,0.978,-0.000793367886504847,0.00041787317101921157,-0.7068438199996577,-0.7073690762199178,0.0006695342096184801,-0.00043285445452100096,-0.00046345994870857193,0.0,-0.0098066499999988,9.80665
16,87.01,0.984,-0.0007984190649666559,0.00041411435327513656,-0.7068399602205,-0.7073729296921228,0.0008109798838117355,-0.0004354436437514022,-0.0004295681548059952,0.0,-0.0098066499999988,9.80665
17,87.105,0.966,-0.0007989206654463139,0.00041379003044410083,-0.706836859376728,-0.7073760277957153,0.0006972392444731621,-0.00044219644111581174,-0.0004220251026563344,0.0,-0.00639393579999867,9.810062714199999
18,87.2,0.982,-0.0007990779012837827,0.0004137264657908944,-0.706833771783835,-0.7073791128840268,0.0005621050286572396,-0.0004493700242601337,-0.00041640849178656915,0.0,-0.0026674087999987136,9.813789241199999
19,87.28,0.98,-0.0007993099020810739,0.0004137527731438268,-0.7068311147472901,-0.707381767597332,0.0004681157765444369,-0.00045418688515201216,-0.00041689498489722623,0.0,-0.00047071919999881577,9.815985930799998
20,87.418,0.992,-0.000800683612040444,0.00041457854516368083,-0.7068259745916808,-0.7073869016523477,0.0004996073432266726,-0.00045053086942061773,-0.00046872323146090116,0.0,-0.005883989999999022,9.810572659999998
21,87.52,0.988,-0.00080171230121207,0.0004151889251757868,-0.706822188230021,-0.707390683498286,0.0005224098153412342,-0.0004474157276563358,-0.0005055147814564424,0.0,-0.0098066499999988,9.80665
22,87.607,0.978,-0.0008031585531976678,0.0004157106855113493,-0.7068195081420188,-0.7073933594537128,0.0005216484025586396,-0.00042715103505179325,-0.00047223073849454565,0.0,-0.0098066499999988,9.80665
23,87.751,0.984,-0.0008055523495876226,0.00041657428882538376,-0.7068150721342911,-0.7073977886213156,0.0005203881331253796,-0.0003936094748787573,-0.00041713990876450973,0.0,-0.0098066499999988,9.80665
24,87.791,0.996,-0.0008060367098935228,0.00041721240023686744,-0.7068134661334339,-0.7073993923554519,0.0005148251037895089,-0.00039964665571811005,-0.00042013626898186184,0.0,-0.0098066499999988,9.80665
25,87.918,0.986,-0.0008071507723537864,0.0004201729261843966,-0.7068074899248012,-0.7074053605067289,0.0004849290413535124,-0.0004548471966612539,-0.0004725935567361169,0.0,-0.0098066499999988,9.80665
26,88.01,0.992,-0.0008079578097265757,0.0004223175591542601,-0.7068031607027996,-0.707409683891906,0.0004632720512423987,-0.0004948349901003781,-0.0005105941116447076,0.0,-0.0098066499999988,9.80665
27,88.101,0.986,-0.0008088690566411308,0.00042245282681095935,-0.7067997485918615,-0.707413091916969,0.0004569201167517652,-0.0005008856339069705,-0.0005054667708463966,0.0,-0.0098066499999988,9.80665
28,88.212,0.994,-0.0008099920620051036,0.00042241594449892925,-0.7067956750060171,-0.7074171606904759,0.00045070395814642933,-0.0005048606156681976,-0.000494870648253709,0.0,-0.0098066499999988,9.80665
29,88.278,0.984,-0.0008110380004258841,0.00042206675880684,-0.7067933017793665,-0.7074195308470356,0.0004523691043807533,-0.0005044964729830712,-0.0004882456311193035,0.0,-0.0098066499999988,9.80665
30,88.4,0.988,-0.0008173990802989017,0.00041759008909270995,-0.7067894874456916,-0.7074233370624156,0.0005182115240471385,-0.00047189062372425945,-0.0004721990390026182,0.0,-0.0098066499999988,9.80665
31,88.495,0.97,-0.0008223523802000219,0.00041410415775793664,-0.7067865172678299,-0.7074263009186541,0.0005694822606726018,-0.0004465008230719064,-0.00045970374186257647,0.0,-0.0098066499999988,9.80665
32,88.61,0.99,-0.0008267538774266776,0.0004136602592842136,-0.706783159164568,-0.7074296510910606,0.000552108861971647,-0.0004641073285602031,-0.00045637182425707575,0.0,-0.0098066499999988,9.80665
33,88.694,0.992,-0.0008296776957859167,0.0004140255349728259,-0.706780749635918,-0.7074320547759063,0.0005249126623384649,-0.00048579531582072436,-0.00045609175693243735,0.0,-0.0098066499999988,9.80665
34,88.806,0.984,-0.0008339997412317642,0.0004135531487400318,-0.7067769459334343,-0.7074358501399469,0.0004979655398055913,-0.0004905946138314916,-0.0004554534996859729,0.0,-0.0098066499999988,9.80665
35,88.914,0.992,-0.000838962911644575,0.00041129601490315896,-0.7067721682905896,-0.7074406187155389,0.0004894717214629054,-0.0004499332220293579,-0.00045434072660282247,0.0,-0.0098066499999988,9.80665
36,88.995,0.996,-0.0008426852894541831,0.00040960316452550436,-0.7067685850584561,-0.7074441951472329,0.00048310135770589084,-0.00041943717817775764,-0.0004535061467904597,0.0,-0.0098066499999988,9.80665
37,89.083,0.988,-0.0008470685961001412,0.00040732851224367563,-0.7067650927584626,-0.7074476801438807,0.0005088303005322804,-0.00044816217268817,-0.00046817822265438677,0.0,-0.0098066499999988,9.80665
38,89.203,0.986,-0.000853209522566276,0.00040401657432590724,-0.7067605238248921,-0.707452239159254,0.0005596693372353921,-0.0005171794618945583,-0.0004957026324700568,0.0,-0.0098066499999988,9.80665
39,89.301,0.992,-0.0008576891494410661,0.0004013142691429726,-0.7067572059453427,-0.7074555499372472,0.0005882947817444802,-0.000544660094194114,-0.0005038629635237153,0.0,-0.0098066499999988,9.80665
40,89.4,0.99,-0.0008611490245579681,0.0003985892527105419,-0.7067546768237467,-0.7074580738712449,0.000591557680629194,-0.0005149488961324082,-0.00048361679073423034,0.0,-0.0098066499999988,9.80665
41,89.492,0.992,-0.0008643642620403415,0.00039605691420767716,-0.7067523265289302,-0.707460419345263,0.0005945898694917561,-0.0004873384898528446,-0.00046480216551572,0.0,-0.0098066499999988,9.80665
42,89.603,0.984,-0.0008674644457066043,0.00039410679218368526,-0.7067481903216868,-0.7074645486545085,0.0005660233277070598,-0.0004701345977633162,-0.0004744757411155494,0.0,-0.0098066499999988,9.80665
43,89.712,0.992,-0.0008702747601286299,0.00039252377730651455,-0.706743738000622,-0.7074689938769824,0.0005282920611784815,-0.0004580792603620972,-0.0004936991764076674,0.0,-0.0098066499999988,9.80665
44,89.79,0.978,-0.0008731735864792239,0.00039078385627836187,-0.7067406048629762,-0.707472121180999,0.0005146259660832586,-0.00045121989189647144,-0.000504941893974319,0.0,-0.0098066499999988,9.80665
45,89.89,0.968,-0.0008799793597496155,0.0003864404948074181,-0.7067367721979393,-0.7074759437435503,0.0005435066050849841,-0.0004485760766547175,-0.0005106090151239183,0.0,-0.0098066499999988,9.80665
46,90.014,0.99,-0.0008884185186049013,0.00038105472658344773,-0.7067320196932936,-0.7074806837211138,0.0005793185974471243,-0.0004452977457549426,-0.0005176362453494215,0.0,-0.0098066499999988,9.80665
47,90.096,0.994,-0.0008896204900683808,0.0003804669438925373,-0.7067293999019619,-0.7074832995249611,0.0005619080639747161,-0.0004762698724918915,-0.0005244834938207716,0.0,-0.0098066499999988,9.80665
48,90.201,0.992,-0.0008907955120683251,0.0003799615603234063,-0.7067260887773077,-0.7074866059009425,0.0005361972929440399,-0.0005186848508996659,-0.0005334342562033203,0.0,-0.0098066499999988,9.80665
49,90.267,0.99,-0.00089154623182315,0.00037965885871234163,-0.7067240050052315,-0.7074886866604989,0.0005205222043414109,-0.0005446863461535157,-0.0005388356535328831,0.0,-0.0098066499999988,9.80665
50,90.406,0.986,-0.0008939450847286862,0.000380030107367114,-0.7067194483931971,-0.7074932350652384,0.0005202607802155713,-0.0005550109905073437,-0.0005350614243414339,0.0,-0.0098066499999988,9.80665
51,90.519,0.994,-0.0008958952313353449,0.00038033191382746853,-0.7067157440970828,-0.7074969326892352,0.0005200482555665076,-0.0005634044064208866,-0.0005319931660778819,0.0,-0.0098066499999988,9.80665
52,90.592,0.978,-0.0008975970201562658,0.00038082725513354616,-0.7067140686889068,-0.707498603805017,0.000520432982232006,-0.0005516438170770317,-0.0005009244479038639,0.0,-0.0098066499999988,9.80665
53,90.677,0.988,-0.0008995785550847357,0.0003814040224077462,-0.7067121178711676,-0.7075005496247627,0.0005208809516370386,-0.0005379499801698007,-0.0004647485431806854,0.0,-0.0098066499999988,9.80665
54,90.824,0.988,-0.0009034144735173395,0.0003823834200132115,-0.706708053320631,-0.707504604196783,0.0005258672543891134,-0.0005244314684588687,-0.0004463833658563264,0.0,-0.0098066499999988,9.80665
55,90.907,0.988,-0.0009059780762252181,0.0003829188412587471,-0.7067050866448344,-0.7075075639403525,0.0005327780365412789,-0.0005266819318502123,-0.0004789924034456063,0.0,-0.0098066499999988,9.80665
56,91.004,0.986,-0.000908974093847679,0.00038354457452160204,-0.7067016195658915,-0.7075110229177771,0.000540854492791401,-0.0005293119914762407,-0.0005171017606282628,0.0,-0.0098066499999988,9.80665
57,91.118,0.988,-0.000918904568546548,0.00037803147241917856,-0.7066981984651004,-0.7075144300870531,0.0005403753046309984,-0.0005150464014614019,-0.0005236020262085969,0.0,-0.0098066499999988,9.80665
58,91.24,0.986,-0.0009305711857846324,0.00037111830547644083,-0.7066946432685686,-0.7075179696593246,0.0005382456964223212,-0.0004969653849716328,-0.000524350127763675,0.0,-0.0098066499999988,9.80665
59,91.32,0.958,-0.0009333367936327834,0.00037002887616426105,-0.706692410204159,-0.7075201971001908,0.0005352700537773801,-0.0005014535833531646,-0.0005237913550715519,0.0,-0.0098066499999988,9.80665
60,91.4,0.99,-0.0009331716217027097,0.0003710057237996213,-0.7066902360669521,-0.7075223683869781,0.0005313469041849533,-0.0005157485433169706,-0.0005226029837260911,0.0,-0.0098066499999988,9.80665
61,91.52,0.986,-0.0009328987521706082,0.00037250119443859615,-0.7066869692602236,-0.7075256309275388,0.0005253165416652355,-0.0005368206885177662,-0.0005209450181573618,0.0,-0.0098066499999988,9.80665
62,91.588,0.99,-0.0009310507647146389,0.00037538505957223993,-0.706684740381157,-0.7075278580271216,0.0005120784715982176,-0.0005237913618329936,-0.0005284071210771785,0.0,-0.0098066499999988,9.80665
63,91.714,0.982,-0.0009276265526638721,0.0003807286920257567,-0.7066806103993571,-0.7075319847116426,0.0004875491064740358,-0.0004996487859170898,-0.0005422339588403693,0.0,-0.0098066499999988,9.80665
64,91.799,0.994,-0.0009250673775033584,0.00038477109428003447,-0.7066777156940722,-0.7075348770878628,0.00047839165432378655,-0.000488160417880863,-0.0005454611894674597,0.0,-0.0098066499999988,9.80665
65,91.916,0.986,-0.0009209159077494948,0.00039143956496632474,-0.7066734571458111,-0.7075391321659967,0.0004844359148992221,-0.00048445564392022824,-0.0005345088436733938,0.0,-0.0098066499999988,9.80665
66,92.0,0.994,-0.0009179353653621052,0.000396227184946226,-0.7066703997265467,-0.7075421870938878,0.0004887753840303046,-0.0004817958062049004,-0.0005266456210520123,0.0,-0.0098066499999988,9.80665
67,92.102,0.984,-0.0009147851935658907,0.00040237510015179426,-0.7066670712176226,-0.7075455120535591,0.0005123915604781355,-0.000495149413589388,-0.0005140549803618343,0.0,-0.0098066499999988,9.80665
68,92.2,0.994,-0.0009118617219220128,0.000408355462970162,-0.7066639577106243,-0.7075486220352402,0.0005391167860943817,-0.0005116266817785796,-0.0005012889399658891,0.0,-0.0098066499999988,9.80665
69,92.282,0.98,-0.0009091118554570952,0.0004132161663159852,-0.7066614110735246,-0.7075511662392463,0.0005577424312923179,-0.0005185718219578891,-0.000489000641495971,0.0,-0.0098066499999988,9.80665
70,92.415,0.99,-0.0009020372398936152,0.0004198665727722669,-0.7066577845317404,-0.7075547932825181,0.0005557873795102109,-0.00047093529678116596,-0.0004552394723096675,0.0,-0.0098066499999988,9.80665
71,92.524,0.986,-0.0008964170866260561,0.00042528576006673933,-0.7066547739308867,-0.7075578040306068,0.0005542515544220805,-0.00043506090994924527,-0.0004294670606032024,0.0,-0.0098066499999988,9.80665
72,92.581,0.992,-0.0008959193276524732,0.00042769210637981205,-0.7066526714637926,-0.7075599029540612,0.0005543603794649244,-0.00045976180583238914,-0.0004420233471319094,0.0,-0.0098066499999988,9.80665
73,92.71,0.964,-0.000894792820501733,0.0004331380480357129,-0.7066479132487902,-0.7075646531492477,0.0005546066677197814,-0.0005156638333573928,-0.00047044020611792744,0.0,-0.0098066499999988,9.80665
74,92.792,0.994,-0.0008937663674291082,0.00043647820845760325,-0.7066448485694177,-0.7075677131090543,0.0005491181081160889,-0.0005456224861554813,-0.0004800009937025597,0.0,-0.0098066499999988,9.80665
75,92.901,0.984,-0.000891276726876489,0.00044047734068544003,-0.7066406294959362,-0.7075719272804147,0.0005213572336360811,-0.0005652311390731484,-0.0004618854110594838,0.0,-0.0098066499999988,9.80665
76,93.01,0.99,-0.0008887870863238694,0.0004444764729132774,-0.7066364104224547,-0.7075761414517752,0.0004935963591560698,-0.0005848397919908183,-0.00044376982841640557,0.0,-0.0098066499999988,9.80665
77,93.123,0.982,-0.0008871659233007314,0.00044747815113786,-0.7066325017438491,-0.7075800450345738,0.0005337306407745963,-0.0005454953454900499,-0.0004560054000467073,0.0,-0.0098066499999988,9.80665
78,93.2,0.988,-0.0008861247370508266,0.0004494478450474964,-0.7066298690857074,-0.7075826742194391,0.000565637908875945,-0.0005147376540116939,-0.00046639483189210383,0.0,-0.0098066499999988,9.80665
79,93.32,0.994,-0.0008846365358456501,0.00045241444004115813,-0.7066255402813402,-0.7075869971422922,0.0005845878738909966,-0.0004760503652505583,-0.0005042487173341198,0.0,-0.0098066499999988,9.80665
80,93.423,0.984,-0.0008835206992491715,0.00045483692622460094,-0.7066215531950455,-0.7075909786171676,0.0005638711906503875,-0.0004539553180802602,-0.0005627711489796671,0.0,-0.0098066499999988,9.80665
81,93.48,0.99,-0.0008829031974433533,0.00045617752537466147,-0.7066193467492319,-0.7075931819576325,0.0005524066183716042,-0.00044172796187922194,-0.0005951573490165219,0.0,-0.0098066499999988,9.80665
82,93.624,0.978,-0.000883146407548937,0.0004586048191671704,-0.7066132242118229,-0.7075992941210654,0.0005477251671254634,-0.00048747032834216915,-0.0005331008094362921,0.0,-0.0098066499999988,9.80665
83,93.695,0.99,-0.0008836082794156408,0.0004596196566152326,-0.7066101014718122,-0.7076024112665599,0.0005500216502696275,-0.0005245562002528444,-0.000475219631334769,0.0,-0.0098066499999988,9.80665
84,93.826,0.982,-0.0008888623154120497,0.00045743950567474147,-0.7066043808862754,-0.7076081185445496,0.0005403781276061602,-0.0005554966778161543,-0.0004234907481946551,0.0,-0.0098066499999988,9.80665
85,93.905,0.99,-0.0008955859816830861,0.00045285163381735065,-0.7066009642540537,-0.7076115247405228,0.0005233516735697996,-0.0005438798135258707,-0.00043677009294280797,0.0,-0.0098066499999988,9.80665
86,93.987,0.974,-0.0009025649770530214,0.0004480895389780344,-0.7065974178763048,-0.70761506028571,0.0005056786453295295,-0.0005318218024903886,-0.00045055371660544525,0.0,-0.0098066499999988,9.80665
87,94.108,0.994,-0.0009052828807564967,0.0004477111666692613,-0.7065924171473293,-0.7076200505892869,0.00048702531791036083,-0.0004963541440053492,-0.00046686986526214646,0.0,-0.0098066499999988,9.80665
88,94.2,0.988,-0.0009052770850823283,0.00044924106068263043,-0.7065886784568255,-0.7076237828728101,0.0004748724942722638,-0.0004645551263124657,-0.00047817570760297037,0.0,-0.0098066499999988,9.80665
89,94.294,0.984,-0.0009048222381754988,0.00045104380218045323,-0.7065848335129324,-0.707627621621101,0.00047598596941679755,-0.0004496581549756233,-0.0004889364810660481,0.0,-0.0098066499999988,9.80665
90,94.399,0.986,-0.0009028515756234892,0.00045383807839001207,-0.7065804572526052,-0.7076319921032543,0.0005213117953389904,-0.0004903366137295981,-0.0004983799278270456,0.0,-0.0098066499999988,9.80665
91,94.504,0.988,-0.0009008809130714795,0.0004566323545995709,-0.7065760809922781,-0.7076363625854075,0.0005666376212611833,-0.0005310150724835729,-0.0005078233745880432,0.0,-0.0098066499999988,9.80665
92,94.601,0.99,-0.0008999973526803232,0.0004600234453096935,-0.7065717023166396,-0.7076407335591411,0.0005826470537576828,-0.0005112507622689,-0.0005439431436825556,0.0,-0.0098066499999988,9.80665
93,94.709,0.99,-0.000899219660740777,0.00046397717362981996,-0.7065667532274104,-0.707645673553142,0.0005947839070577182,-0.00047663351893424764,-0.0005901841672603071,0.0,-0.0098066499999988,9.80665
94,94.8,0.994,-0.0008983737785221865,0.0004669035582738891,-0.7065626414258394,-0.707649778235565,0.0005975499330088495,-0.0004580421862192453,-0.0006054090731777245,0.0,-0.0098066499999988,9.80665
95,94.909,0.986,-0.000896896355136012,0.0004694224040854525,-0.7065578582055277,-0.7076545542545067,0.0005826930564362542,-0.00046153381653130093,-0.0005658322295639626,0.0,-0.0098066499999988,9.80665
96,94.994,0.99,-0.000895744235981656,0.00047138664164492823,-0.7065541281713398,-0.7076582786729475,0.0005711074187420304,-0.0004642566475085916,-0.0005349695533514008,0.0,-0.0098066499999988,9.80665
97,95.124,0.978,-0.0008952636733695208,0.000474300034966005,-0.7065488759762468,-0.7076635212756397,0.0005249130576848987,-0.00047123902337625626,-0.0004998989789746702,0.0,-0.0098066499999988,9.80665
98,95.203,0.98,-0.0008951663288901723,0.0004760566969800174,-0.7065457530124655,-0.7076666382577211,0.000492515067337078,-0.00047591028572060214,-0.00048042986472137094,0.0,-0.0098066499999988,9.80665
99,95.316,0.984,-0.0008977291727678671,0.00047507609123999934,-0.7065410280090088,-0.7076713531211308,0.00047543045829989114,-0.0004906462787453886,-0.00046781246157073683,0.0,-0.0098066499999988,9.80665
100,95.411,0.958,-0.0009031925026834281,0.0004699741100077429,-0.7065367397628685,-0.7076756309028976,0.000496892543533721,-0.0005128975288359923,-0.0004758551972825453,0.0,-0.0098066499999988,9.80665
101,95.495,0.996,-0.0009080232365035034,0.000465462884497116,-0.7065329480504917,-0.7076794133625652,0.0005158695452141611,-0.0005325723183897903,-0.0004829666688593026,0.0,-0.0098066499999988,9.80665
102,95.6,0.982,-0.0009095563396191061,0.0004656563252903522,-0.7065283040491966,-0.7076840477157218,0.0005384064912796007,-0.0005383689582813533,-0.0004896363480947907,0.0,-0.0098066499999988,9.80665
103,95.704,0.98,-0.0009096062016698028,0.00046774919035220356,-0.7065237354528965,-0.707688607380917,0.0005603427402675137,-0.0005379830051679166,-0.000495518942829221,0.0,-0.0098066499999988,9.80665
104,95.781,0.988,-0.0009094566575817404,0.00046954995644813227,-0.7065203987633469,-0.7076919375897854,0.0005702076712623216,-0.0005390080413781114,-0.0005002277297899131,0.0,-0.0098066499999988,9.80665
105,95.905,0.99,-0.0009072039898155469,0.0004751606839858535,-0.7065155198687609,-0.7076968074697153,0.0005172959342598913,-0.0005548016619868579,-0.0005116238063201308,0.0,-0.0098066499999988,9.80665
106,96.006,0.994,-0.0009053691555866313,0.000479730712060933,-0.7065115459304288,-0.7077007740654645,0.00047419847105629765,-0.0005676658207084984,-0.0005209060944616793,0.0,-0.0098066499999988,9.80665
107,96.112,0.984,-0.0009041327066242659,0.00048511500104689894,-0.7065069809636538,-0.7077053291884331,0.0005085234327707413,-0.0005664129052311186,-0.0005127005735412245,0.0,-0.0098066499999988,9.80665
108,96.204,0.986,-0.0009031581649506293,0.0004898722825738261,-0.7065029625068618,-0.7077093387957109,0.0005496965416241404,-0.0005632147081196312,-0.0005030111754313118,0.0,-0.0098066499999988,9.80665
109,96.289,0.988,-0.000901949551129735,0.0004941134577605661,-0.7064992492549955,-0.7077130443296528,0.0005805340206866423,-0.0005630179483916672,-0.0005000432969198653,0.0,-0.0098066499999988,9.80665
110,96.44,0.98,-0.0008977643910526348,0.0005006285474261843,-0.7064926491538104,-0.7077196337503604,0.0005876873521276957,-0.0005809060969641576,-0.0005343415290436452,0.0,-0.0098066499999988,9.80665
111,96.494,0.98,-0.0008962677112899631,0.0005029584470417035,-0.7064902888527244,-0.707721990231938,0.0005902454971463508,-0.0005873031832086248,-0.0005466071219885739,0.0,-0.0098066499999988,9.80665
112,96.596,0.988,-0.0008944134466508393,0.0005060683627844655,-0.7064854587585712,-0.7077268119870842,0.0005758025011553713,-0.0005655752088852576,-0.0005757835456243476,0.0,-0.0098066499999988,9.80665
113,96.68,0.988,-0.0008931465113691042,0.0005082842811626706,-0.7064813816362051,-0.7077308819413966,0.0005587545130951828,-0.0005386411125302351,-0.0006014176274972483,0.0,-0.0098066499999988,9.80665
114,96.804,0.954,-0.0008916142730891446,0.0005115314840805162,-0.7064753192890109,-0.707736933158779,0.0005408113865996712,-0.0005112296930747112,-0.0006229946739040302,0.0,-0.0098066499999988,9.80665
115,96.916,0.986,-0.0008911461855917146,0.0005143996404644283,-0.706469725104741,-0.7077425158043309,0.0005441765592437267,-0.0005199312727199867,-0.0005984141269788871,0.0,-0.0098066499999988,9.80665
116,96.994,0.984,-0.0008908201960845758,0.0005163971065175101,-0.7064658291549817,-0.7077464037181975,0.0005465201616208369,-0.0005259913014015184,-0.0005812955317988751,0.0,-0.0098066499999988,9.80665
117,97.075,0.984,-0.0008916949595509301,0.0005178143027963753,-0.7064617378712589,-0.7077504854201403,0.0005533942403271796,-0.0005411219871602959,-0.0005783379757776856,0.0,-0.0098066499999988,9.80665
118,97.198,0.986,-0.0008939445065237241,0.000519467435829886,-0.7064554906426534,-0.7077567171595727,0.0005672040237113825,-0.000570808227406813,-0.000585098674288019,0.0,-0.0098066499999988,9.80665
119,97.302,0.99,-0.0008951608855935832,0.0005207782615578041,-0.7064505047547722,-0.7077616913798122,0.0005740813405718651,-0.0005834575199987731,-0.000586535380687564,0.0,-0.0098066499999988,9.80665
120,97.372,0.988,-0.0008948928128845629,0.0005215227408958931,-0.7064476185348708,-0.7077645720112736,0.0005711035553831608,-0.0005722363612148913,-0.0005807191920466721,0.0,-0.0098066499999988,9.80665
121,97.487,0.992,-0.0008944524077197442,0.0005227458140941823,-0.7064428768878901,-0.7077693044772462,0.0005662114797160032,-0.0005538016003556561,-0.0005711640249937776,0.0,-0.0098066499999988,9.80665
122,97.606,0.988,-0.000896402635324652,0.0005239036237786283,-0.7064376031821074,-0.7077745649074662,0.0005828780820593224,-0.0005606711725704363,-0.0005607606226112698,0.0,-0.0098066499999988,9.80665
123,97.71,0.982,-0.0008989481079402528,0.0005248778045455669,-0.706432865887229,-0.7077792892804332,0.0006050398154184208,-0.0005757448705844572,-0.0005514882316347216,0.0,-0.0098066499999988,9.80665
124,97.808,0.986,-0.0009011518081375445,0.0005256997927049155,-0.7064281666888769,-0.7077839761029533,0.0006125378359574815,-0.0005722117552068065,-0.0005505291759036488,0.0,-0.0098066499999988,9.80665
125,97.913,0.986,-0.0009031686101259796,0.0005264109369065383,-0.7064227163582356,-0.7077894128215254,0.0005969277741387492,-0.0005370951606892064,-0.0005632414356805378,0.0,-0.0098066499999988,9.80665
126,98.0,0.99,-0.0009048396746306831,0.0005270001706735972,-0.70641820036999,-0.7077939175311996,0.0005839937229175122,-0.000507998553803191,-0.0005737744509242473,0.0,-0.0098066499999988,9.80665
127,98.109,0.986,-0.0009107658408844631,0.0005238079547160323,-0.7064131840464338,-0.7077989187636498,0.000587028561159968,-0.0005406568371690783,-0.0005628051427192995,0.0,-0.0098066499999988,9.80665
128,98.175,0.962,-0.0009149079452765331,0.0005213071211176149,-0.7064102393533628,-0.7078018541802017,0.0005916461991146204,-0.0005704180388711377,-0.0005526713225990538,0.0,-0.0098066499999988,9.80665
129,98.281,0.988,-0.0009209836107764868,0.0005175761902245932,-0.7064055425901664,-0.7078065366281018,0.0005986743715157607,-0.000612083991082288,-0.0005380855938159968,0.0,-0.0098066499999988,9.80665
130,98.37,0.984,-0.0009214356095960031,0.0005167453329507584,-0.7064018617880194,-0.7078102101128689,0.0006014476836365889,-0.000597638681909418,-0.0005394595153852406,0.0,-0.0098066499999988,9.80665
131,98.491,0.982,-0.0009220501248450085,0.0005156157404773426,-0.7063968575513926,-0.707815204401148,0.0006052181416885012,-0.0005779995537081008,-0.000541327431226572,0.0,-0.0098066499999988,9.80665
132,98.623,0.992,-0.0009240988466098919,0.0005151226853160312,-0.7063905355660269,-0.7078215113095856,0.0005928346470464022,-0.0005402474843431268,-0.0005385168199427426,0.0,-0.0098066499999988,9.80665
133,98.696,0.982,-0.000925465814234531,0.0005149754888122651,-0.7063868928600905,-0.7078251449605024,0.0005831860131584118,-0.0005165979727171388,-0.0005361395003274084,0.0,-0.0098066499999988,9.80665
134,98.826,0.986,-0.000927705542892518,0.0005147402707430202,-0.7063802845698587,-0.7078317370081811,0.00056290971208364,-0.0005043930746614906,-0.0005335546964779495,0.0,-0.0098066499999988,9.80665
135,98.881,0.982,-0.00092853724910531,0.000514656780341631,-0.7063774165398063,-0.7078345980966129,0.0005524890983942906,-0.0005170395213644941,-0.0005334428772330283,0.0,-0.0098066499999988,9.80665
136,99.005,0.984,-0.0009304123685668771,0.0005144685474366809,-0.7063709504356882,-0.7078410485505318,0.0005289953511673977,-0.0005455515102948971,-0.0005331907756626605,0.0,-0.0098066499999988,9.80665
137,99.089,0.992,-0.0009326130720751509,0.0005136801425570272,-0.7063662967844065,-0.7078456901461931,0.0005400144422243947,-0.0005445041030339188,-0.00056213142932924,0.0,-0.0098066499999988,9.80665
138,99.224,0.986,-0.000936529342845999,0.0005121435629748724,-0.7063587062194687,-0.7078532607431635,0.0005687069956885157,-0.0005345175103348206,-0.0006205143271966695,0.0,-0.0098066499999988,9.80665
139,99.303,0.986,-0.0009372821236854292,0.0005109716696558875,-0.7063549693490947,-0.7078569895309824,0.0005727674270602228,-0.0005391042106171729,-0.0006192677626982865,0.0,-0.0098066499999988,9.80665
140,99.401,0.98,-0.0009376924920726969,0.0005094251694137966,-0.7063505735409868,-0.7078613765379469,0.0005734744417527525,-0.0005483419296341642,-0.0006056766090351182,0.0,-0.0098066499999988,9.80665
141,99.487,0.98,-0.0009380526112696869,0.0005080680365482881,-0.7063467159950964,-0.7078652263603851,0.0005740948832176254,-0.0005564484993837686,-0.0005937496782694807,0.0,-0.0098066499999988,9.80665
142,99.64,0.954,-0.0009507395157932371,0.000498869843503938,-0.7063398204813313,-0.7078720964290983,0.0005461622625589382,-0.0005788033599965268,-0.0005588140375912201,0.0,-0.0098066499999988,9.80665
143,99.743,0.984,-0.0009616857486040824,0.0004913230234402118,-0.7063351718798337,-0.7078767255637822,0.0005215599916409727,-0.000595436703646554,-0.0005325563198421176,0.0,-0.0098066499999988,9.80665
144,99.832,0.978,-0.0009672219744666503,0.0004886608738996878,-0.7063311555180335,-0.7078807275032275,0.0005328542646020614,-0.000583940164651725,-0.0005380312539637062,0.0,-0.0098066499999988,9.80665
145,99.92,0.992,-0.0009708215804674648,0.0004878728093960188,-0.7063271844707298,-0.7078846854364669,0.0005595785826444615,-0.0005602099183015537,-0.0005569041501730671,0.0,-0.0098066499999988,9.80665
146,100.021,0.984,-0.0009749529464456719,0.0004869683262724897,-0.7063226267914382,-0.7078892280643893,0.0005902508113067583,-0.0005329740673769279,-0.0005785650878678995,0.0,-0.0098066499999988,9.80665
147,100.127,0.984,-0.0009782760023069848,0.0004859895606769955,-0.7063191801506782,-0.7078926631159983,0.0005753501364961282,-0.000539935990236699,-0.0005694974819198258,0.0,-0.0098066499999988,9.80665
148,100.191,0.986,-0.0009802765516388964,0.00048539843819803553,-0.7063171068461616,-0.7078947294474848,0.0005660827169194822,-0.0005443438133224844,-0.0005638398388400675,0.0,-0.0098066499999988,9.80665
149,100.302,0.988,-0.0009830246633899776,0.0004844479285986183,-0.7063132433184783,-0.7078985811982711,0.0005618007155135277,-0.0005553554254584018,-0.000555628230795264,0.0,-0.0098066499999988,9.80665
150,100.438,0.992,-0.0009840046182030358,0.00048353051697095907,-0.7063076242443114,-0.7079041868915986,0.0005955607956275336,-0.0005799848488532002,-0.0005508630014955997,0.0,-0.0098066499999988,9.80665
151,100.506,0.984,-0.000984494595609565,0.0004830718111571295,-0.7063048147072278,-0.7079069897382625,0.0006124408356845366,-0.0005922995605505994,-0.0005484803868457676,0.0,-0.0098066499999988,9.80665
152,100.64,0.978,-0.0009883727335030042,0.00048234589248372724,-0.7062990905491779,-0.7079126959433277,0.0006137524656951429,-0.0005633563487790539,-0.0005431607500649989,0.0,-0.0098066499999988,9.80665
153,100.726,0.982,-0.000991115148942866,0.0004818954945273182,-0.7062954005001689,-0.7079163740552685,0.0006118137165904046,-0.0005401503485627491,-0.0005396923106163741,0.0,-0.0098066499999988,9.80665
154,100.835,0.998,-0.0009786084557713729,0.0004739959578495607,-0.7062894352364899,-0.7079223477741213,0.00012156300991782783,0.0007400402666532848,-0.0007217265514190895,0.0,-0.0098066499999988,9.80665
155,100.889,0.988,-0.0009666311130173962,0.00046743142115561584,-0.706286013936603,-0.7079257817941088,-0.00029776301980011027,0.0018267072124870387,-0.0008793460822198257,0.0,-0.0098066499999988,9.80665
156,101.0,0.98,-0.0009420110195786664,0.00045393765128472907,-0.7062789812646133,-0.7079328406129719,-0.0011597109697758718,0.0040604114900342,-0.0012033417844213388,0.0,-0.0098066499999988,9.80665
157,101.116,0.754,-5.907433334356737e-05,-0.0005243730171316623,-0.7062612192269392,-0.7079491166384162,-0.004853011131286399,0.00777271600812653,-0.001190516394563025,0.0036873003999997682,-0.0024320491999992493,9.924643612799992
158,101.238,0.51,0.00108053159671268,-0.0017906242911744186,-0.7062399754256584,-0.7079684250596103,-0.009424719247966779,0.012016224298625974,-0.0010905273305252257,0.008472945599999764,0.00713924120000076,10.077784259199992
159,101.32,0.39,0.0015311302895433707,-0.0018193701095863134,-0.7062330807711743,-0.7079750433293811,-0.009821239684474853,0.007604443679650276,-0.001160603986433371,0.007931274701195633,0.011682025298805654,10.508665486852504
160,101.409,0.37184873949579833,0.0017777411267027637,-0.0012183533303958887,-0.7062312743477261,-0.7079773373680831,-0.008194093191736383,-0.0027685020252534477,-0.0013422056322034367,0.0044540163346611355,0.01515928366534024,11.228457968725145
161,101.536,0.6176470588235294,0.0020105923478762376,-0.00038403879744615307,-0.7062308672807036,-0.7079785099416352,-0.0054688060935584116,-0.016009599041193704,-0.0015787768056616184,0.0,0.018593408400001073,12.09587514939998
162,101.63,0.5429769392033543,0.0014102047811849344,8.21492551503311e-05,-0.7062446547577649,-0.7079657414296272,-0.0008333263639361006,-0.01567989416792989,-0.0016073949569836237,0.0,0.011218807600001487,11.701334006600003
163,101.72,0.4557235421166307,0.0008353656215868198,0.0005284995182746696,-0.7062578555336747,-0.7079535162585557,0.0036048989091069846,-0.015364219289273014,-0.001634795314632355,0.0,0.004158019600001173,11.32358184859999
164,101.81,0.5350877192982456,0.00027338842004575605,0.0008185363966904708,-0.7062624921227523,-0.7079493322418762,0.006513816581283505,-0.014061062362972488,-0.0012317075666196718,0.0,1.3527146917793286e-15,11.045753704016057
165,101.928,0.5372807017543859,-0.00043927037161770185,0.0009052382294821788,-0.7062524869946637,-0.7079589484469045,0.007455571782756484,-0.010497910451203967,0.0001052755326682918,0.0,1.3310876168888335e-15,10.86915523574298
166,102.012,0.46710526315789475,-0.0009465867995815602,0.0009669581782491623,-0.706245364700092,-0.7079657938809926,0.008125973790584759,-0.00796142942926685,0.001057026213517427,0.0,1.3156920720515305e-15,10.743441071887558
167,102.098,0.4401805869074492,-0.0013353552782643257,0.0009496348366302529,-0.7062489051428483,-0.7079615450068731,0.007936498799557955,-0.006699475075723094,7.583852068886458e-05,0.0,1.303313715189362e-15,10.642364117529885
168,102.2,0.3829268292682927,-0.0017760673034571367,0.0009165238186582611,-0.7062547947503044,-0.7079547488451837,0.007575090314109472,-0.0054110643209005944,-0.0013930840743335152,0.0,1.28916047179008e-15,10.526794114741032
169,102.299,0.3938618925831202,-0.0021704784661927086,0.0008687941568161172,-0.7062624754612329,-0.7079461780456386,0.007218789689242801,-0.004319796293973855,-0.0022275742390192167,0.0,1.2762833743858997e-15,10.421644634799991
170,102.401,0.4005235602094241,-0.0024804000338832185,0.0007745125723567953,-0.70627607127548,-0.707931635670628,0.0068357187546789645,-0.0036561288461089128,-0.0013770606759935604,0.0,1.265503483344407e-15,10.3336201444
171,102.492,0.4262734584450402,-0.0027568986874110793,0.0006903986097509137,-0.7062882008744651,-0.7079186615909617,0.006493959391489594,-0.0030640333779155668,-0.0006182691638822902,0.0,1.2558861295720931e-15,10.255088491199993
172,102.609,0.4331395348837209,-0.003051860048384562,0.0006172878143318629,-0.7062989840541615,-0.7079067519120138,0.006371360644698143,-0.00259485787712038,-0.0004312882008962318,0.0,1.247239158148436e-15,10.184480611200001
173,102.696,0.3857566765578635,-0.003254964089563041,0.0005723142888802065,-0.7063057125112523,-0.7078991748821939,0.006365113612264395,-0.0023242750810459198,-0.0005036281477659953,0.0,1.2418059777705707e-15,10.1401153266
174,102.811,0.4503311258278146,-0.003482000477529567,0.0004928095784303078,-0.7067444620378842,-0.7074586858131708,0.006107142509286599,-0.0018936447372816655,-0.0003585760782277773,0.0,1.2353477782232743e-15,10.087380125301202
175,102.889,0.3708609271523179,-0.003579044052067631,0.00041131896401703946,-0.7076328296042589,-0.7065682892066097,0.005588971841407141,-0.0015012862256178535,7.05821385857462e-05,0.0,1.2319619159188305e-15,10.059732461445785
176,102.999,0.16417910447761194,-0.0037159003751341506,0.00029639630266497835,-0.7088856556594029,-0.7053126016845362,0.004858218335423188,-0.0009479601194252211,0.0006758052648613122,0.0,1.2271869818997426e-15,10.020742166265064
177,103.104,0.15037593984962405,-0.0037091258135335463,0.0001908144188025497,-0.7091408564023038,-0.7050570439852695,0.0033456782724122615,0.0005041317762880686,0.00015785515079262506,0.0,1.2242268456333391e-15,9.99657081932271
178,103.209,0.11764705882352941,-0.0036638093826363368,8.63873088861632e-05,-0.7091322082490147,-0.705066001184746,0.0016045399120102697,0.0022153711165357917,-0.00066741510058768,0.0,1.2217148602430001e-15,9.976058901992031
179,103.297,0.0,-0.0035879761912066183,-1.2527981927453868e-07,-0.7091312854653948,-0.7050673154896073,0.00020126578277425774,0.003446781856333276,-0.000723701962045428,0.0,1.2198364774097517e-15,9.960720742168675
180,103.519,1.0,-0.0031420175237307107,-0.00021159673419703405,-0.7091715088287892,-0.7050289712658588,-0.002962316014012883,0.00518920082396951,0.003408596843918673,0.0,1.2166242490696378e-15,9.934490907228916
181,103.614,0.0625,-0.0028764461652773855,-0.0002820318727147133,-0.7091537243026567,-0.7050478822576123,-0.0034376308090049894,0.0051344696458325186,0.002705000968931959,0.0,1.2161406450434861e-15,9.930541980677292
182,103.697,0.05063291139240506,-0.0026422915362791753,-0.00034299845468625106,-0.7091371891824056,-0.7050654107361553,-0.003827878485519115,0.005063849835252141,0.002019856041631226,0.0,1.2157435121151087e-15,9.927299144223108
183,103.816,0.13043478260869565,0.003160029998945121,0.015596313993597644,-0.6753945074983925,-0.7304943932150353,-0.04416571057215925,-0.16455996100234524,-0.8015029098523107,0.0,1.2149667392461388e-15,9.9209563124
184,103.906,0.0,0.014855665808912406,0.04907450828033141,-0.6048019796314732,-0.7836842515294034,-0.1278458202891143,-0.5194511987306566,-2.4819816629832574,0.0,1.214102042103773e-15,9.913895524399999
185,104.102,1.0,-0.01829469915599524,0.09371157802174464,-0.36507908437418046,-0.8951422930810483,-0.0909448811411715,-0.6301539235114714,-4.520568830490098,-0.03718681680000364,-0.0154945070000004,9.117595544399922
186,104.215,0.025396825396825397,-0.08746027056761539,0.09530704814907487,-0.15345066892578546,-0.955663413447576,0.11744010925294313,-0.12858284854885738,-4.311683021545397,-0.09037808640000343,-0.03765753600000045,7.991713671199927
187,104.29,0.1701388888888889,-0.12054869051181791,0.09207530891744072,-0.016808742358086763,-0.9824973477843103,0.15761423306092448,0.1030503637970291,-4.097823256537969,-0.10974108333332891,-0.04307921249999576,7.5077688805556075
188,104.395,0.92,-0.10564799959108243,0.0670565691679634,0.15624664996098966,-0.9563708552664963,-0.2548785376406665,-0.05636649306803737,-3.4391394796825887,-0.06070783333333554,-0.006304275000000671,8.087995672222196
189,104.498,0.8315789473684211,-0.09103113135454878,0.04251437684228122,0.32600574909306684,-0.9307420102252074,-0.65951430318611,-0.21274683837379757,-2.7930020604814803,-0.012608549999999996,0.02977018750000105,8.657170525
190,104.605,0.8631578947368421,-0.06103871512231218,0.03059666466424108,0.4562656951718914,-0.8746182284071937,-0.6607198844473048,-0.2878001939101394,-2.5679524107630476,0.009452192771084318,0.026623676305221982,8.730754157831326
191,104.717,0.6764705882352942,-0.02441358112864736,0.02291861392479813,0.5763296784473668,-0.8054504711683906,-0.5139103007603883,-0.33548482318958495,-2.490009060825212,0.022685262650602025,0.00897958313253169,8.624889598795184
192,104.809,0.8,-0.010059990269169934,0.01102565611130948,0.4328726483917874,-0.5833766306750839,-0.3759789629280629,-0.3633956378698348,-2.3860804796218935,0.02667408800000027,-0.002745861999998676,8.627302270999996
193,104.879,0.8,-0.018631962793771634,-0.004945100727308832,0.02375060530371209,-0.20963184544932523,-0.24954747065901037,-0.3706811267137534,-2.257558512687676,0.02118236399999969,-0.008237585999999242,8.739882613000006
194,105.018,0.5,-0.035653451092621274,-0.03665846073541802,-0.7886488802567843,0.5325185137845805,0.001509349703788354,-0.3851480259895327,-2.0023506069183354,0.010277369200000018,-0.019142580799998882,8.9634350064
195,105.083,0.5,-0.030185515860124492,-0.025245876099313096,-0.8494217938460992,0.5163529170405358,-0.1605173409283088,-0.1427634907960997,-1.954048943996431,0.007492280600000099,-0.014984561199999094,9.000857182799999
196,105.213,0.16666666666666666,-0.016518603224553063,0.0029167656737322176,-0.9060606122611332,0.4101476233730099,-0.5414034059941563,0.39268008100983554,-1.8718944649696394,0.002392822600000276,-0.004785645199999442,9.062050678799997
197,105.307,0.0,-0.010233408295092943,0.018522426422761626,-0.9401372457207099,0.331270730126723,-0.5880066195726344,0.5394567403793293,-1.8394154510498049,-0.007766866800000294,-0.014239255799999408,9.242218452600005
198,105.418,0.0,-0.010663082566272075,0.026564486367557857,-0.9653643742366623,0.23358366110084977,-0.14360214996335707,0.1880578522682015,-1.859834053993226,-0.033891782400001284,-0.06213493440000117,9.751654306800024
199,105.487,0.2,-0.010930177383491481,0.03156360471161935,-0.9810461027736025,0.1728592668415357,0.13264927709100172,-0.030379294395427525,-1.872526699066161,-0.050131594799998555,-0.09190792379999613,10.068330648599972
200,105.592,0.13333333333333333,-0.0188031175191807,0.016042673459527118,-0.9914448651658807,0.0849139131363562,0.3504993775522844,-0.1882981595744088,-1.7304901478281,-0.04544929357429736,-0.08377005843373399,10.326520602409637
201,105.709,0.4878048780487805,-0.03210277486182354,-0.01527481616314983,-0.994868353221385,-0.010377420562127843,0.4704506634229697,-0.258473903539194,-1.4743930594509258,-0.022409573694777973,-0.04229856265059907,10.478582753614466
202,105.79,0.11965811965811966,-0.04158237636218984,-0.03512307972485325,-0.9952437157881295,-0.0717715552606568,0.4960409648418188,-0.28869921535253057,-1.3137219495773194,-0.00980665,-0.017612743399997518,10.534421109799984
203,105.886,0.05737704918032787,-0.05403174254565457,-0.05046799681049054,-0.9867882918246667,-0.12411392162084017,0.2700226466655742,-0.24261119693517721,-1.1974839429855353,-0.00980665,-0.0063154825999987806,10.380025212200001
204,106.003,0.6639344262295082,-0.06920440758175446,-0.06916961450861375,-0.9764832438691946,-0.18790618062232312,-0.005437178611764737,-0.1864414244890195,-1.0558188724517774,-0.00980665,0.007453054000001718,10.191855211999993
205,106.104,0.8762886597938144,-0.06721610689915908,-0.060337447862460265,-0.9655835153355624,-0.23658451080513965,-0.20348820102167603,-0.12013096431320239,-0.9789016828593969,-0.0003125625498006171,0.01930073745020061,10.036266263147407
206,106.254,0.9278350515463918,-0.05873107238530051,-0.03806147680259425,-0.948660956308567,-0.3065357525170766,-0.48305092841031405,-0.015114687142456618,-0.8813073528240373,0.017269080876494536,0.036882380876495736,9.807704898605571
207,106.32,0.79,-0.055572527357167396,-0.026048772602179825,-0.9397833151357433,-0.33333390831235754,-0.48484104990959764,-0.022099543774497063,-0.8423001117706342,0.016004452800000606,0.03200890560000241,9.822340639999993
208,106.449,0.15555555555555556,-0.049887533553017574,-0.0006902478277429555,-0.9212148869611745,-0.38232957657641564,-0.3853290230035804,-0.08095446709776177,-0.7694020330905931,0.0058839900000002224,0.011767980000001663,9.948846424999997
209,106.552,0.15555555555555556,-0.045700305841304016,0.016991325636873805,-0.9062082364493829,-0.4191053776388851,-0.31416948938369477,-0.0978983029127086,-0.7124924278259247,0.002196689600000455,1.2298107068567524e-15,10.042166506400005
210,106.603,0.140625,-0.0440938081075034,0.022343129225324526,-0.8985381046804631,-0.4342049247263546,-0.28993774276972123,-0.06643468555808475,-0.6860325324535403,0.006197802799999492,1.234220662282817e-15,10.078176525199996
211,106.703,0.17894736842105263,-0.040943812551030585,0.032836861751701904,-0.8834986306237529,-0.46381187979983385,-0.24242451411485574,-0.0047413181960570955,-0.6341503846645344,0.014043122800000161,1.2428676337064756e-15,10.148784405200002
212,106.841,0.17117117117117117,-0.03369197916077387,0.043196368337662695,-0.8633319780267721,-0.5006621887381756,-0.19472588075667183,0.06226247400045105,-0.565780431397111,0.0196133,1.2506491236819695e-15,10.212325092857142
213,106.911,0.128,-0.028452075307619208,0.04623557661313138,-0.8534184881585575,-0.5172003373729877,-0.1801363752204549,0.08650284856557768,-0.5328348495522334,0.0196133,1.252364792615235e-15,10.226334592857143
214,107.012,0.10897435897435898,-0.02089164260521121,0.0506207199820214,-0.8391147384915637,-0.5410625232603564,-0.1590858029467729,0.12147824615239924,-0.4852990814617725,0.0196133,1.2548402577903752e-15,10.246548299999999
215,107.119,0.1388888888888889,-0.011189562455740163,0.05223023844841573,-0.8263777206442909,-0.5598562998119592,-0.16595172951929224,0.16590984154026706,-0.43370478413999364,0.015782577343750222,1.2597031069230993e-15,10.286256476562498
216,107.22,0.18274111675126903,-0.0019196917939429056,0.05354889206365154,-0.8145145950952353,-0.5771676611169617,-0.17435985541669596,0.20833747505093636,-0.3849220476113293,0.01191354746093776,1.264441301984891e-15,10.324946775390622
217,107.297,0.22727272727272727,0.007433507185075398,0.05435977701063501,-0.8059877676073534,-0.5891269564404497,-0.18894910001754367,0.24216329884528687,-0.34483029472828447,0.010669635199999661,1.2664930811851146e-15,10.341700824000002
218,107.413,0.16236162361623616,0.03013391421294385,0.05484911903298115,-0.7950905714574668,-0.6024791701596507,-0.24173206424712726,0.2986957244873003,-0.27350665938854773,0.015219920799999648,1.2637068348374915e-15,10.318949396000002
219,107.529,0.11808118081180811,0.05297344861582655,0.055837145599804676,-0.7841727548164684,-0.6156824442784424,-0.29195225667953667,0.349450166940698,-0.20331972932815864,0.019456393600000364,1.2612088208706564e-15,10.298551563999997
220,107.63,0.10780669144981413,0.07625142440231239,0.0688549953845861,-0.7741640114578071,-0.6235473537270605,-0.2731998497247715,0.2527782896161177,-0.169920786172155,0.015494507000000402,1.266060732613931e-15,10.338170429999996
221,107.716,0.1729957805907173,0.09607227507199326,0.07993950114192463,-0.7656417151326104,-0.6302442073169727,-0.2572324537038825,0.17046362179518867,-0.14148208209872637,0.01212101940000046,1.2701920634052343e-15,10.371905305999995
222,107.78,0.270042194092827,0.10992573501736998,0.08730469784713864,-0.7600721149907099,-0.6344829720327634,-0.2400290223956165,0.11768988102674147,-0.11146501109004978,0.009414384000000357,-0.0005883989999981909,10.402305920999993
223,107.947,0.3125,0.1184572468478267,0.07931241843597561,-0.7693269718609649,-0.6226063218624391,-0.031310586452487826,0.24120140922069333,0.23946201819180823,-0.0036873003999997687,-0.02024092559999835,10.644687082399996
224,108.018,0.2450592885375494,0.12208441654820038,0.07591450323721781,-0.7732616714884385,-0.6175569675984093,0.05742599409818022,0.2937122984528505,0.38865853962301156,-0.009257477599999609,-0.028596191399998094,10.747735360599993
225,108.113,0.2126865671641791,0.13176929199859744,0.057200633124803724,-0.7850937806799867,-0.6012569497721423,0.175471881270401,0.26301098370552317,0.4320186133384684,-0.0029027684000004815,-0.019064127599999443,10.454124259600022
226,108.224,0.22560975609756098,0.1435343676335838,0.034018201907371884,-0.7995290545161027,-0.5813246366758442,0.3133354077935195,0.21775521826744165,0.4681573847532266,0.005805536799999848,-0.006001669799998995,10.070958830800006
227,108.341,0.23275862068965517,0.13571988083048608,0.00887014872419514,-0.8153676767435722,-0.561281820501557,0.43675045156477815,0.05113400888445585,0.48739129710197404,-0.0031381279999977037,-0.005177911199997898,9.66449280160004
228,108.477,0.15591397849462366,0.10847854075624666,-0.02100176882005597,-0.8343380264321627,-0.5388526873687204,0.560535884380339,-0.24936009263991904,0.492809891462326,-0.02981221599999964,-0.015847546399998733,9.189694035200008
229,108.564,0.17073170731707318,0.0848829134637612,-0.03630328340479123,-0.8456385133686316,-0.52424768075311,0.5804046777486879,-0.3835062174796966,0.4812217829227492,-0.0376967626000005,-0.0165536251999999,8.988461577200011
230,108.63,0.18292682926829268,0.06122269754705538,-0.04435610394257686,-0.8534317077367135,-0.5129281020168888,0.5400935989618364,-0.43104209661483023,0.458374692201618,-0.0351078070000004,-0.011375713999999709,8.931504554000009
231,108.706,0.1774193548387097,0.033977600430846966,-0.05362904880426999,-0.8624056891302629,-0.4998934355933604,0.49367478096485296,-0.485780381679533,0.43206592106819247,-0.0321265854000001,-0.00541327079999912,8.865917678800002
232,108.797,0.06451612903225806,0.0026972487392145734,-0.06244137287283296,-0.8718003126804512,-0.4853015207642159,0.4295005425214854,-0.525219706773762,0.39294136619568476,-0.027693979600000678,1.0799490843387311e-15,8.818453492799994
233,108.916,0.5981308411214953,-0.03270347391507563,-0.06456966750006224,-0.87854649340143,-0.4703842769177995,0.31033373755217486,-0.46973716938496046,0.31051244604588174,-0.018358048800000696,1.087952336778628e-15,8.883805008399996
234,109.012,0.7959183673469388,-0.06126204008996635,-0.06628661106488594,-0.8839887904536483,-0.4583501978484211,0.21419917219877765,-0.42497814762592556,0.24401516592502961,-0.010826541600000409,1.0944087421082927e-15,8.936525558799998
235,109.169,0.8061224489795918,-0.08943747208483441,-0.06163901847348938,-0.8875666854018623,-0.4471022487387008,0.09848785698414474,-0.30808494353295046,0.16423728418350653,-0.0041580196000003435,0.005648630400000777,9.152664124799987
236,109.231,0.9509803921568627,-0.09990347084760115,-0.059537866302103296,-0.8887898580948369,-0.442961021498312,0.05427277535200914,-0.2603655729293909,0.1337655578851755,-0.0017259704000004376,0.008080679600000694,9.242649945199984
237,109.328,0.8301886792452831,-0.10984355523268641,-0.05521464071564117,-0.8901782132792975,-0.43864236539293733,-0.002870698630808459,-0.18961406461894703,0.09784331144392566,0.0,0.009806650000001147,9.377197183199996
238,109.419,0.8514851485148515,-0.11415764441543763,-0.05035200362964398,-0.8910715536591071,-0.43627341107887685,-0.047108767211432964,-0.12628124356270445,0.07329537403583763,0.0,0.009806650000001162,9.49856428359999
239,109.54,0.9405940594059405,-0.11864222361812936,-0.04377467877659955,-0.8922498939365575,-0.4334510913862867,-0.10214767768326061,-0.04607128599784714,0.04299717388334728,0.0,0.009220595219124644,9.650485936055778
240,109.602,0.9081632653061225,-0.11640764614746389,-0.040000308159970924,-0.8928192440239309,-0.43319119398439243,-0.11665093495076422,-0.019462289221851482,0.03595438955047442,0.0,0.006798235458168475,9.69408841175299
241,109.715,0.826530612244898,-0.1123349484993154,-0.03312121332643786,-0.8938569304734987,-0.4327175100099722,-0.14308429093831204,0.029034753289239067,0.02311834713733473,0.0,0.002383289442232083,9.773557440039843
242,109.788,0.8490566037735849,-0.10920169272774634,-0.028724813747068267,-0.8945264021967778,-0.4324877751453279,-0.15778844633016242,0.05776977444808167,0.015950892591871404,0.0,1.2024586114796757e-15,9.81881969819277
243,109.912,0.8144329896907216,-0.09954292070662946,-0.02166811936263686,-0.8956558841156994,-0.4327561384632612,-0.16228160315967485,0.08417352586685514,0.013488836339618681,0.0,1.2054489741987008e-15,9.843237862851407
244,110.019,0.7731958762886598,-0.09120833517227929,-0.015578875014781229,-0.8966305177070268,-0.432987710035994,-0.1661587626819151,0.10695740813950458,0.011364320057433042,0.0,1.2080293678352788e-15,9.864308375903615
245,110.107,0.8514851485148515,-0.0828772028684994,-0.011278534747941984,-0.8973695100851071,-0.4330962290464175,-0.16583183383941655,0.11883478140830911,0.011704223789274642,0.0,1.2081740628055542e-15,9.8654899
246,110.228,0.6511627906976745,-0.07127334364361868,-0.005436762005951303,-0.8983793289056795,-0.4332371994893339,-0.16502860093116767,0.1344759089648709,0.012381581030785958,0.0,1.2081740628055542e-15,9.8654899
247,110.343,0.08333333333333333,-0.05950515129153929,-0.0004700329475980998,-0.8992718749211156,-0.43313601449116085,-0.1626461212378574,0.14808553718475712,0.014121073290735354,0.0,1.2075233389711044e-15,9.860176336653387
248,110.416,0.36363636363636365,-0.051710352793078375,0.002425931502408801,-0.8998089641993073,-0.43296860604700566,-0.16042339991763305,0.1561736676441242,0.015706017680198928,0.0,1.2068247677958864e-15,9.854472070119522
249,110.491,0.5555555555555556,-0.04370199817137091,0.005401237444197101,-0.9003607682522441,-0.4327966110701339,-0.1581397821228817,0.16448339071881746,0.017334385203620614,0.0,1.206107057684361e-15,9.848611522310756
250,110.611,0.6666666666666666,-0.030753600877053873,0.00927767817036117,-0.9011255889456585,-0.43216084857415077,-0.14732681632041839,0.1662131354212759,0.021028420403599993,0.0,1.2049554678867481e-15,9.839208078
251,110.687,0.7692307692307693,-0.022517735577625052,0.011502211242357539,-0.9015791856784663,-0.4316641678543665,-0.1386116034984587,0.16429245799779887,0.023651878133416203,0.0,1.2042252791887503e-15,9.8332456348
252,110.84,0.45714285714285713,-0.007129450369453967,0.01505071543988986,-0.9024103172470154,-0.43043970663562914,-0.11687066698074211,0.1546449587345115,0.026966324687004096,0.0,1.2024478461738872e-15,9.8187317928
253,110.907,0.4166666666666667,-0.0011165631368258155,0.016038398964873052,-0.9027243231329771,-0.42976675240171947,-0.10479500195384021,0.1468998792171478,0.02721991913765667,0.0,1.2014822676982456e-15,9.8108472462
254,111.031,0.2727272727272727,0.009887790950111603,0.017810259677028806,-0.9033023345375739,-0.42851435871491605,-0.08258588619530054,0.13239530876278732,0.027592190839350054,0.0,1.1997672850325534e-15,9.79684335
255,111.101,0.40350877192982454,0.014434268621561766,0.018056895428967584,-0.903586526948011,-0.42771430611002187,-0.07192778699099975,0.12191792652010874,0.026498198322951735,0.0,1.1997672850325534e-15,9.79684335
256,111.252,0.38461538461538464,0.024241670455690686,0.018588923979578408,-0.9041995705762396,-0.4259884783480357,-0.04893674442172064,0.09931671625375761,0.024138300180435182,0.0,1.1997672850325534e-15,9.79684335
257,111.313,0.3108108108108108,0.027231510586451194,0.018504841084309328,-0.904434959333376,-0.4253239717905916,-0.04035441571846522,0.08963218794762987,0.023680488020181634,0.0,1.1999450283340398e-15,9.7982947342
258,111.397,0.4594594594594595,0.030480375830939974,0.018121974250297476,-0.9047481462030753,-0.42443810595804177,-0.029166243989019344,0.0758010590523466,0.023492670804262133,0.0,1.2003485536671437e-15,9.8015897686
259,111.525,0.3333333333333333,0.03543102763206555,0.01753855812227944,-0.9052253833378551,-0.42308821516558487,-0.012117601353673874,0.054725053116677636,0.02320647314190862,0.0,1.200963449412826e-15,9.8066107734
260,111.594,0.375,0.03640336821168268,0.016862757039662786,-0.9054829680869174,-0.42247639710367535,-0.004087272233197216,0.044141929892321206,0.02204610259523475,0.0,1.201292324084345e-15,9.809296238888889
261,111.715,0.4875,0.03806474022790293,0.01566833909204349,-0.9059346830340878,-0.42140648656174406,0.009964985540136695,0.025603187270462513,0.019985304214060303,0.0,1.2018689794758034e-15,9.814004987499999
262,111.793,0.4215686274509804,0.03883425482515855,0.014852786869500399,-0.9062234249739517,-0.42074870531149355,0.018368556134162495,0.014120972602658077,0.018466164316651525,0.0,1.202241860747993e-15,9.817049794153226
263,111.901,0.43478260869565216,0.038146674416659594,0.013458397487356348,-0.9066089958662913,-0.42002351850654956,0.02619571791541157,0.0009463299140940878,0.015253796275975626,0.0,1.2027648630518433e-15,9.821320432056451
264,112.05,0.391304347826087,0.03684965889000422,0.011508113202631806,-0.9071407340327559,-0.41904854297703675,0.036382354080677075,-0.016327840521931723,0.011814099542796623,0.0,1.2034854827447263e-15,9.8272047384
265,112.119,0.4956521739130435,0.035408694892576836,0.010540941108197492,-0.9073864762665769,-0.41865858099660186,0.03962368986010568,-0.022151847042143638,0.012614274810999675,0.0,1.2038169499826333e-15,9.829911373800002
266,112.226,0.6021505376344086,0.03317415651975476,0.00904112351248058,-0.9077675548030819,-0.41805385734578265,0.04465010911226286,-0.031183277443051577,0.01385512631386522,0.0,1.2043309643950395e-15,9.83410862
267,112.298,0.4588235294117647,0.03148152568999691,0.008047310662832059,-0.9080131110905467,-0.41767322947489915,0.04735023712375733,-0.03655415773391751,0.014184010152025946,0.0,1.2045711580456967e-15,9.83606995
268,112.432,0.5365853658536586,0.02753185120437302,0.006262896581711986,-0.9084241390663689,-0.4170760357823595,0.049490180386015194,-0.0435622707009317,0.012655476338241175,0.0,1.2045711580456967e-15,9.83606995
269,112.508,0.3717948717948718,0.025291737317004452,0.005250840834211141,-0.908657259410865,-0.4167373289119639,0.05070387954968372,-0.0475370213389394,0.011788546712512577,0.0,1.2045711580456967e-15,9.83606995
270,112.631,0.547945205479452,0.021286865779977973,0.003688983304638225,-0.9089922265579437,-0.41622946756790336,0.05040024772286415,-0.04914923819899559,0.009719338737428208,0.0,1.2040715552523298e-15,9.8319903836
271,112.705,0.6944444444444444,0.01883572744513547,0.002757690748295713,-0.9091891000436229,-0.4159283554298442,0.04996830359101297,-0.049589345514774306,0.008401231121271903,0.0,1.2037160686493572e-15,9.8290876152
272,112.811,0.5588235294117647,0.01535421952128932,0.0014822737950287873,-0.9094534921385667,-0.41550907950816746,0.04909952135988498,-0.049793695110872525,0.007208215875034974,0.0,1.2033701897924109e-15,9.8262633
273,112.917,0.5588235294117647,0.011935356093972931,0.00033094398921853477,-0.9096805800360369,-0.415115314606751,0.04770121841605404,-0.04909576951380233,0.007487145022500366,0.0,1.2033701897924109e-15,9.8262633
274,113.017,0.5441176470588235,0.008710013238014092,-0.0007552162049420752,-0.9098948139015748,-0.41474383828466005,0.04638206469545882,-0.04843734913920782,0.007750285727656395,0.0,1.2033701897924109e-15,9.8262633
275,113.129,0.5370370370370371,0.00544221475443551,-0.0016793049438060985,-0.9100841262810654,-0.4143677220563806,0.0416201662272211,-0.04645261406898482,0.006448959587141766,0.0,1.2028753908720571e-15,9.8222229602
276,113.223,0.5740740740740741,0.0027248685709895734,-0.0024334352953653913,-0.9102393005060136,-0.41405498190324114,0.03738270588219154,-0.04469538241624827,0.005239728251472085,0.0,1.2024238268088216e-15,9.8185356598
277,113.333,0.6181818181818182,-0.00013935177298823767,-0.0031711211453902786,-0.9104127433973858,-0.41368107449686714,0.032570847432570584,-0.04119078604229888,0.0057814572585294256,0.0,1.202169221539125e-15,9.81645665
278,113.41,0.5454545454545454,-0.001938854773187531,-0.0035932495921552066,-0.9105288526985686,-0.41341417467559577,0.029298141984588216,-0.03779492822598186,0.007434295562737805,0.0,1.202169221539125e-15,9.81645665
279,113.512,0.5581395348837209,-0.004322611994230897,-0.004152432729428262,-0.910682659824811,-0.41306061906819724,0.0249628698327152,-0.03329651917060059,0.009623769680000987,0.0,1.202169221539125e-15,9.81645665
280,113.623,0.6511627906976745,-0.006244174722704872,-0.004645577238321846,-0.9107952800165064,-0.4127796744631667,0.023336404353380167,-0.029316212534904355,0.006244392435997588,0.0,1.202169221539125e-15,9.81645665
281,113.705,0.47619047619047616,-0.007586079265093707,-0.004996564310783007,-0.9108721562949034,-0.41258411203675993,0.022491697192192107,-0.02648142479360113,0.0030828151858878477,0.0,1.202169221539125e-15,9.81645665
282,113.818,0.7142857142857143,-0.009208123561866807,-0.005387246749473776,-0.9109772578970122,-0.41231727061746887,0.01966594946011917,-0.022433875244110942,0.0009470665057887785,0.0,1.202169221539125e-15,9.81645665
283,113.95,0.6666666666666666,-0.010636900092922019,-0.005652852216373752,-0.9110983130996719,-0.4120110046383384,0.012956313353031781,-0.01741636970266693,0.0030084247662453285,0.0,1.202169221539125e-15,9.81645665
284,113.982,0.5555555555555556,-0.010983270161056564,-0.005717241420470707,-0.9111276598154683,-0.41193675834036736,0.01132973490282902,-0.016200004722923107,0.003508147980901388,0.0,1.202169221539125e-15,9.81645665
285,114.16,0.7906976744186046,-0.01193998048018269,-0.005773963672381117,-0.9112622276943915,-0.41161268865187206,0.002061894044280285,-0.008279901541769712,0.0037541017290204926,0.0,1.202169221539125e-15,9.81645665
286,114.24,0.6727272727272727,-0.012222463133302603,-0.005753617767809119,-0.9113183474296304,-0.41148056183564735,-0.002136881843208944,-0.004544809855521012,0.0034793456252664545,0.0,1.202169221539125e-15,9.81645665
287,114.305,0.4727272727272727,-0.012632240968026951,-0.005834954570441839,-0.9115802992380456,-0.41088237514665565,0.0028468112573041956,-0.0075940579995522825,0.027735811162745042,0.0,1.202169221539125e-15,9.81645665
288,114.411,0.7222222222222222,-0.013688945911297195,-0.00617849596510999,-0.9124737142977574,-0.40884915115138104,0.02906525613367566,-0.0256773856133223,0.12004492776840955,0.0,1.202169221539125e-15,9.81645665
289,114.488,0.5833333333333334,-0.014456552332352018,-0.006428049619727428,-0.9131227044826422,-0.40737218655104,0.048110730241983764,-0.03881338774785372,0.18709966341592243,0.0,1.202169221539125e-15,9.81645665
290,114.623,0.3409090909090909,-0.015224339229359462,-0.005147965991311372,-0.918121073369926,-0.39568294813937965,0.010565226554868815,-0.025667939871548834,0.19139740300178415,0.0,0.003765753600001264,9.161215523599974
291,114.734,0.3409090909090909,-0.015662557088122406,-0.0035217224113723235,-0.9235203672510464,-0.3830322256083228,-0.044000422447916715,-0.0027756378911448568,0.15709719055891233,0.0,0.00811990620000078,8.403592971200043
292,114.805,0.2619047619047619,-0.014958665056140057,-0.001762949195596978,-0.9260375320641778,-0.37709634258882446,-0.06994008147213941,0.009906048482531685,0.13267046231102977,0.0,0.008703894176707565,8.07811963112449
293,114.899,0.35714285714285715,-0.012025690137600291,0.0020265498981229617,-0.9274661523321054,-0.37362118719793036,-0.08605978835419038,0.022708503765065582,0.09527437999305866,0.0,0.00500178534136635,7.970758474899596
294,115.025,0.37254901960784315,-0.008094255672323188,0.007106091236514031,-0.9293811114146466,-0.3689630001846038,-0.1076670550258779,0.03986924169697445,0.04514771646045403,0.0,3.93841365467721e-05,7.826848839959829
295,115.103,0.3258426966292135,-0.004795640755627453,0.010432049459174707,-0.9296896354214559,-0.36809657284558894,-0.10830189231263687,0.04266714604489821,0.03482863754479338,0.0,9.675832792200085e-16,7.900917063545814
296,115.186,0.422680412371134,-0.0012736240850239602,0.013973718100847448,-0.9300058179054139,-0.3672024821849708,-0.10880134863207544,0.04553625987939178,0.02413430501265254,0.0,9.775116024294446e-16,7.981987974900406
297,115.289,0.42105263157894735,0.0030906091553752147,0.018335522902091023,-0.9303430854141332,-0.36620545283871286,-0.10874807399511335,0.04855157876014709,0.011653869323432412,0.0,9.907027315005545e-16,8.089701718
298,115.381,0.3611111111111111,0.006944988128670276,0.022006096791868185,-0.9302710923828924,-0.3660769497490214,-0.104141393840313,0.047552335739135754,0.0058630510866642446,0.0,1.0083809841889217e-15,8.234055605999998
299,115.505,0.43434343434343436,0.012140020657893925,0.026953392034611195,-0.9301740582973069,-0.36590374993248076,-0.09793239015340832,0.04620552992820746,-0.0019419647976752635,0.0,1.0322081943341119e-15,8.428619541999991
300,115.585,0.48484848484848486,0.015085810256757374,0.02987728929652227,-0.9299514669285861,-0.3661178433252504,-0.09339761167764707,0.04311610406637228,-0.006088460773229258,0.0,1.0470233387066458e-15,8.54959437639999
301,115.703,0.5280898876404494,0.019203787031605465,0.034040148902490616,-0.9295336337221144,-0.3666159302616721,-0.08641286402940739,0.03731685888767233,-0.011707163203507757,0.0,1.0685639052975822e-15,8.725486450800004
302,115.8,0.47191011235955055,0.02237390977898596,0.03729380487029364,-0.9291496145745688,-0.3671260702566903,-0.0799124020338062,0.03255926249176282,-0.01633689710497838,0.0,1.0854975576689117e-15,8.863760215799996
303,115.964,0.27358490566037735,0.02656420059245615,0.04187902451321908,-0.9282797860006698,-0.36853633043472217,-0.06479447901248954,0.024567602224648113,-0.02422416231036175,0.0,1.1099204480677326e-15,9.063188250199998
304,115.999,0.2138364779874214,0.02745846997337957,0.042857577485794524,-0.9280941518538011,-0.36883730059466796,-0.06156809300184303,0.022862064972520156,-0.02590742012858363,0.0,1.1151326502869927e-15,9.105749111199993
305,116.116,0.15384615384615385,0.029507874979399152,0.04502991887653988,-0.9273329998866895,-0.37033075704477497,-0.04230699116736676,0.01829805521294479,-0.030803523436188647,0.0,1.1291359401203064e-15,9.220094650199998
306,116.178,0.16153846153846155,0.030437171036471027,0.045997884480882045,-0.9269062137262823,-0.37120341075234037,-0.03068722074478935,0.016069134343415628,-0.0332762067764996,0.0,1.1359862630370486e-15,9.276031781799997
307,116.298,0.05429864253393665,0.02397798127071365,0.04839631828092433,-0.9271276376442751,-0.3697631776818125,0.19242778807134212,-0.3402732494734361,0.08552737060189716,0.0,1.1487405458869448e-15,9.3801784048
308,116.411,0.12307692307692308,-0.018763277169653286,0.052985255291154235,-0.9319861266964498,-0.354515366684384,1.2931600308120283,-2.2385833902210055,0.746049468636515,0.0,1.1585116235956782e-15,9.4599653092
309,116.496,0.22580645161290322,-0.05091378130621025,0.056437110564335785,-0.9356407423551649,-0.34304577434118627,2.121144461192133,-3.666515796977927,1.2429023742377416,0.0,1.165861549305787e-15,9.519982007199996
310,116.584,0.12903225806451613,-0.13364033410438758,0.025712592606275606,-0.9189375020734138,-0.33970038804006936,1.9730609798431227,-3.332644413709608,0.8428778433799526,2.8686804846001084,-10.613894201400399,20.124461824600402
311,116.69,0.014705882352941176,-0.2656774206098089,-0.03376536471669116,-0.8853966843245792,-0.3412581073108007,1.1361179447174332,-1.743301368951847,-0.23800547361370517,8.203419631399834,-30.35201324259938,39.804368591399395
312,116.783,0.19117647058823528,-0.3722592065069733,-0.08033163024213065,-0.8581762132239436,-0.3436729516955297,0.36971134567260444,-0.3805792531967142,-1.0668237419128397,12.297146833999989,-45.38337177639995,54.791008801199965
313,116.889,0.5698924731182796,-0.3406663363614331,-0.040571940008469996,-0.8636230811375254,-0.36374827306679985,-1.0344645614623331,0.6487039761542767,-0.03647171878819777,7.265943118000248,-24.734646442801015,34.196337722401026
314,117.024,0.7478260869565218,-0.3004301338175812,0.01006540132685707,-0.8705601298953898,-0.3893158993415331,-2.822801801681517,1.9595835607051844,1.2757690653800955,0.8582780080000063,1.563258463199979,7.967275499400017
315,117.12,0.06349206349206349,-0.13929754441133213,0.023983807532877342,-0.8995334395489567,-0.35061244797508695,-1.9899267884364475,2.2774328587064763,1.160689510672213,0.5560097057768895,1.2719732964143269,6.116302115139419
316,117.205,0.06349206349206349,0.007156954337200039,0.03567645501782819,-0.9258735256374783,-0.31471903107903154,-1.1923746758723737,2.541315487181504,1.0288568312428479,0.4098867137450305,0.4716178173307355,4.957281110159446
317,117.296,0.19555555555555557,0.14622853992732737,0.044755996921306745,-0.94615723830058,-0.2809201471196453,-0.4913370944114308,2.6013755152424842,0.8489708089495982,0.25555895478087437,-0.190428733466133,4.345869692430308
318,117.436,0.10101010101010101,0.24961866496801205,0.03727082787240245,-0.927974559128144,-0.25779857951249235,-0.36626217351016127,1.3058420975369094,0.33046513475267236,0.03129532529879325,0.0064856729083775655,7.332404855777046
319,117.52,0.10047846889952153,0.3116527399924144,0.03277972644306047,-0.9170649516246839,-0.24392563894820246,-0.2912172209694097,0.52852204691367,0.019361730234559005,-0.10326285239043714,0.1246343167330679,9.124325953784847
320,117.585,0.1687041564792176,0.3095917347523466,0.03978282223426672,-0.9169605612008486,-0.24740713481293147,-0.2181357896351965,0.17851920731098642,-0.0957560612853682,-0.11106326506024153,0.10200491365462269,10.019875715260985
321,117.72,0.1596009975062344,0.28860040809906445,0.05782529555674491,-0.9195267571426885,-0.25938327977289044,-0.061340761150287554,-0.4644630077373324,-0.2929170135273921,-0.09511268975903671,0.016935178714863858,11.71595355562243
322,117.783,0.1970074812967581,0.2777290059167325,0.06615213881577904,-0.9208297665129843,-0.2652392718781202,0.008042456991968702,-0.7387634980678576,-0.3760660487413419,-0.0864946530000016,-0.019809432999998298,12.443854318000001
323,117.92,0.19901719901719903,0.2269593736570779,0.08191432112010877,-0.926323344808928,-0.28471205133648336,0.06337478765845134,-0.6855055541992203,-0.3334000928401959,-0.038128255200001446,-0.02518347719999832,12.4223581412
324,117.992,0.18899521531100477,0.20027752312645558,0.09019809576180057,-0.9292104808476722,-0.2949459208328498,0.09245455268025343,-0.6575159778594976,-0.3109771087169651,-0.012709418400000477,-0.028007792399998427,12.411060880399999
325,118.112,0.19534883720930232,0.16446663852160318,0.0957630149432517,-0.9313394200876924,-0.30860976565947673,0.14706743180751275,-0.5559950075149651,-0.27081822347641366,0.0032950343999995674,-0.022829881199999395,12.003418053200052
326,118.177,0.2214765100671141,0.1470791699850479,0.09686417054967277,-0.931869766865575,-0.3152234460773221,0.17807629823684734,-0.4882664141654959,-0.24841845494508707,0.005844763400000036,-0.017730423199998496,11.692351115199996
327,118.306,0.22737306843267108,0.11649709620650546,0.09784493114576964,-0.9390631253561968,-0.2810024561654424,0.005670927674478132,-0.5518202685926334,2.613072065284137,0.008703894176707137,-0.010909405823291498,11.145041112249015
328,118.403,0.15578947368421053,0.10414822482127495,0.09531508174043121,-0.9611281351916207,-0.1268499460291075,-0.7585102403499225,-1.1365697637619392,12.405515580531826,0.0048836329317268135,-0.01472966706827185,10.923465960040156
329,118.482,0.06512605042016807,0.09409089657969716,0.09325468892577449,-0.9790986071194371,-0.0013030563304642362,-1.3808845936892777,-1.612809043332737,20.380804629031175,0.0017722861445784149,-0.017841013855420272,10.743007846385549
330,118.613,0.02857142857142857,0.017544595541081676,0.06916845823285356,-0.9850426853277507,-0.014376022475632147,-1.5605076347214355,-0.28243084590279155,16.13646312681359,-0.14112199123505464,-0.8428249155378177,9.165154436852644
331,118.682,0.42857142857142855,-0.03927405073083641,0.05078510176867797,-0.9815988900639356,-0.08224235026068805,-1.4201857079547753,1.002616919369304,9.086245578361408,-0.25434777490039545,-1.503308653585639,7.981675412350629
332,118.818,0.07114624505928854,-0.06287216268633042,0.028720067499055337,-0.9699756139503994,-0.19166238460588583,-1.106240787506127,2.6385982418060605,-0.7389141058921785,-0.3240117160000175,-2.100584430000063,6.5045548119999665
333,118.909,0.18028846153846154,0.06328549994520215,0.03670943412662192,-0.9544330214532194,-0.2257812817520002,-0.8361654964685433,2.2930002150535573,-0.7756811907291417,-0.12411296239999953,-1.3688122069999973,6.890073836800001
334,118.975,0.18527315914489312,0.15478446405156393,0.04250391981254778,-0.9431603719497731,-0.2505268555063183,-0.6402867139578207,2.042346701145216,-0.8023474280834154,0.020868551199974772,-0.8380763090000913,7.169681041599952
335,119.12,0.18052256532066507,0.26011654799974226,0.07702403379057624,-0.9110797679022413,-0.30081952184498006,-0.46773622054902325,1.0702136182595776,-0.8516862922244605,0.04062754999999954,-0.3152137499999985,8.350128983333338
336,119.165,0.11137440758293839,0.27569811254722837,0.0916328760425213,-0.8998159133311869,-0.3156994667760996,-0.46027507609318125,0.6931670725581887,-0.8653452926211898,-0.0066545125000031236,-0.26793168749999585,8.817696045833365
337,119.361,0.07048458149779736,0.2859149040540815,0.1540336037436132,-0.8575251386945438,-0.39090945429686946,-0.21915060209939446,-0.32113921498678116,-0.9145560286131258,-0.10515564457831197,-0.12476894457831066,10.84839979578318
338,119.939,1.0,0.11366143452491101,0.12073287419570519,-0.8151137990901615,-0.5527308574033102,0.6976480078697229,0.05128690540790305,-0.10313015341759058,-0.0180442359999992,-0.04981778199999902,11.265487254000016
339,119.98,0.525,0.10303437059790782,0.10744671463892524,-0.8168365384145639,-0.5557433772877669,0.6686767549514716,0.08145840400457943,-0.0636794160529898,-0.027693979600001792,-0.04499291019999775,11.078925544399965
340,120.114,0.47474747474747475,0.08717174293476102,0.07168043795691312,-0.8196846040928791,-0.5608807126760758,0.5086451071500661,0.16406092941761452,-0.014444427583366457,-0.03589233899999969,-0.029223816999997772,10.582552147999975
341,120.202,0.574468085106383,0.08389815299059647,0.05109082353514061,-0.8205016396740958,-0.562471966718901,0.3788114937543842,0.21224756062030892,-0.012284238521009665,-0.03244039819999993,-0.018867994599998526,10.299493002399995
342,120.301,0.5384615384615384,0.08119580912775222,0.030067229237835936,-0.8209951617646115,-0.5642464903677166,0.2580544714927655,0.24064520007371554,-0.015534303650261302,-0.031145920400000436,-0.012395605599999429,10.006941019599989
343,120.479,0.6,0.08250691941035988,0.005732350204705361,-0.8192039635981254,-0.5673386445640407,0.20018334984779265,0.12926847338676276,-0.05712344180792639,-0.04511059000000023,-0.033342609999999155,9.643859609999994
344,120.485,0.8333333333333334,0.08255111413898711,0.00491207338336384,-0.8191435861318394,-0.5674428744807707,0.19823263788223167,0.1255142017006855,-0.05852532286942079,-0.04558130920000024,-0.034048688799999186,9.631620910799993
345,120.92,1.0,0.0014421814767016441,0.03688538348748985,-0.30123872321654854,-0.9402383846551429,0.28466884982586604,0.21468398141857203,-3.3416827425955993,-1.0611972098000382,0.20539047760001067,8.270222531199959
346,121.016,0.7,-0.03472031989460507,0.04656222743700994,-0.19375008586338532,-0.9768865399944644,0.40994733417035323,-0.4539805235863359,-2.0258990664480887,-1.7503301186000644,0.37861514320001716,7.52460331839993
347,121.102,0.4880952380952381,-0.05539982214303045,0.04471516919483546,-0.12356893970908908,-0.9856453369250119,0.3991056525707216,-0.3119429671764137,-1.7618395762443455,-1.1793085023999317,0.5996570342000213,7.658444477600025
348,121.173,0.3541666666666667,-0.07074992182333316,0.041644210869484576,-0.06946752990447495,-0.9893373621105768,0.37206099748611243,-0.08572930812833979,-1.6783120145797665,-0.5331679471999504,0.7918281476000157,7.886821742800018
349,121.285,0.3883089770354906,-0.09505009492490793,0.03658797026867186,0.014632396593453698,-0.9944194019459179,0.3340827226638794,0.24127375720495184,-1.5298341871744179,0.4482702421686747,1.0728238795180733,8.24077611506024
350,121.387,0.28106508875739644,-0.11856318379386419,0.028573667410942534,0.07122212638341748,-0.9871094399299888,0.3748530149459839,0.05895947907344393,-1.1256641652210648,0.7334901590361447,0.9723943313253023,8.461721121084338
351,121.487,0.22189349112426035,-0.1416152317046034,0.020716507746502768,0.12670225362847476,-0.979942810502608,0.41482388973235707,-0.1197800092907626,-0.7294190456589917,1.0131175285140297,0.8739339899598498,8.678333872088334
352,121.57,0.30604982206405695,-0.16258628965199387,0.023412028229970894,0.16154492021940872,-0.9722413777437646,0.4495350980758612,-0.23368461990355233,-0.6399022722244043,1.170600197199987,0.9950219355999527,8.7654975828
353,121.67,0.3695652173913043,-0.19001419037577658,0.037500018577332234,0.1903444783633557,-0.9609006284732454,0.4931616449356061,-0.33040228748321143,-0.8135778093337942,1.2725893571999958,1.3794426155999853,8.761574922800001
354,121.788,0.2457627118644068,-0.22497838495738928,0.05564924543273761,0.22449139680880076,-0.945822387113781,0.6037222070997377,-0.41748899827430813,-0.9611978568053555,1.3928959328685169,1.8012589041832623,8.759291965936255
355,121.892,0.23684210526315788,-0.28053582767669855,0.08616489714742609,0.2561427115686608,-0.9163879727817896,1.2635386792786687,-0.23685794824687073,-0.5457227176966452,1.4985420747011895,1.8703352276892404,8.779608531673306
356,121.991,0.2894736842105263,-0.33342223949604344,0.11521345022198662,0.286272328503529,-0.8883686745234505,1.891633205679795,-0.06491108331689843,-0.1502223448912201,1.5991090750996035,1.936090574103588,8.798948339442232
357,122.096,0.4090909090909091,-0.4257873269287696,0.1303627652538008,0.34856282160054436,-0.8021156034079673,2.4070288467407526,-0.9692362537641204,-3.0223240379903955,0.9885495465999294,2.786579210800091,8.430541645399959
358,122.241,0.3181818181818182,-0.581749440749377,0.1390181082118705,0.4583420827337351,-0.6387240004441223,3.000682334899916,-3.069193293946844,-9.566606694192775,-0.41635113240003196,4.572566308800042,7.61717809439998
359,122.311,0.831858407079646,-0.47707794573448237,0.1354531546298658,0.316000178433535,-0.5279246942060429,2.750759482622011,-2.945774040221944,-9.837908625423426,-0.96403292160006,4.458181543199807,6.8542207243998154
360,122.368,0.672566371681416,-0.21782711710671016,0.1250626774310683,0.011207566654470591,-0.40683632049101015,2.0284608124867254,-1.7456518244743642,-7.266226347038584,-1.2837689381999924,3.420716426400026,5.874889428800023
361,122.517,0.2,0.45986364544673664,0.09790160545525847,-0.7855310150137835,-0.09030706288497858,0.14034674493969046,1.3915097570419221,-0.5437586368732354,-2.1195701043999975,0.708746208800008,3.3148830596000085
362,122.59,0.40512820512820513,0.5429990157247087,0.1084539995604674,-0.8251090496295803,-0.08204520880880647,-0.05193043172181753,1.5913429246005732,-0.28127352716366827,-3.5930237209164706,-0.10548986055782622,2.786963975298774
363,122.703,0.6633663366336634,0.5958982956617374,0.1320540736223638,-0.7795592479004609,-0.11396388371619426,-0.12642577200742336,1.4934883682851268,-0.7979645187803418,-6.197841870318801,-1.2092263645418648,2.1909462631473935
364,122.772,0.5609756097560976,0.628199625888774,0.1464647383150268,-0.7517456521543604,-0.13345404804017524,-0.17191407713757395,1.433736471065958,-1.1134660977321291,-7.788394545617636,-1.8831893625498457,1.8270062442230839
365,122.914,0.6666666666666666,0.658651426399523,0.1483348671797809,-0.7222774081793952,-0.14557652595096005,-0.08190296071022725,0.661044277167877,-0.5336937852110699,-5.933337062799994,-1.9981245507999998,1.8583994016000005
366,123.012,0.6666666666666666,0.6781832057804122,0.14848064376040235,-0.7030844158915104,-0.15278958098045758,-0.012216826111078743,0.10100759885088006,-0.08292873922735766,-4.441784824400011,-2.0250339983999996,1.9122182967999999
367,123.104,1.0,0.6828378914922615,0.1483277764165114,-0.6988023993575171,-0.15296802895574682,0.0005775288795121015,-0.0018785971701145167,-6.432870123535557e-05,-5.517613555999965,-2.7498631131999813,1.3531607936000154
368,123.227,1.0,0.6846117775955904,0.14802918122721775,-0.6975445198242328,-0.15106252813650073,0.0005689868296030907,-0.0019156905296258636,5.340332770720408e-05,-7.761178943000049,-3.946431319600027,0.4074859207999795
369,123.294,1.0,0.6855781131551963,0.1478472843973976,-0.6968565536055945,-0.15004339065002736,0.0005671709426678711,-0.001944508519023653,0.00010310661885887438,-8.7279185,-4.4620257500000005,5.464405552450567e-16
370,123.418,1.0,0.6873670623329158,0.14737578447615507,-0.695563826268818,-0.14828907383260076,0.0005836880416609354,-0.00205818704143167,9.401236940175282e-05,-8.7279185,-4.4620257500000005,5.464405552450567e-16
371,123.517,1.0,0.6887953362731916,0.14699934502290504,-0.6945317294434884,-0.14688844992191366,0.0005968750803731375,-0.002148946506902571,8.675163798034256e-05,-8.7279185,-4.4620257500000005,5.464405552450567e-16
372,123.591,1.0,0.6896174006243279,0.14677647252794637,-0.693905106617538,-0.14621005608721635,0.0006030419229877637,-0.00187891684790485,9.360400133253766e-05,-8.7279185,-4.4620257500000005,5.464405552450567e-16
373,123.724,1.0,0.6910008474977629,0.1463983141695341,-0.6928343585900012,-0.1451319416841891,0.000612712137720896,-0.0012641787065200247,0.00011062318876191292,-8.7279185,-4.4620257500000005,5.464405552450567e-16
374,123.82,1.0,0.6918274928683339,0.1462072269070715,-0.6921645411289173,-0.144588256273194,0.0006246905369439203,-0.0010094655222218647,0.00012068689913967556,-8.7279185,-4.4620257500000005,5.464405552450567e-16
375,123.885,1.0,0.6922310370928081,0.14615220522127173,-0.6918046203967282,-0.1444331303998708,0.0006373408658660041,-0.0010086757509386634,0.00012548374145688826,-8.7279185,-4.4620257500000005,5.464405552450567e-16
376,124.002,1.0,0.6929574166968613,0.1460531661868322,-0.691156763078788,-0.14415390382788915,0.000660111457925749,-0.0010072541626289012,0.00013411805762786883,-8.7279185,-4.4620257500000005,5.464405552450567e-16
377,124.124,1.0,0.6934205636836739,0.14614240821559701,-0.6906564167753193,-0.14423466380801045,0.0007142034103162556,-0.001029897708445786,0.00011380876135081207,-8.7279185,-4.4620257500000005,5.464405552450567e-16
378,124.216,1.0,0.693703720649123,0.14625294883665,-0.6903184601323367,-0.14437910716820782,0.0007618110417388342,-0.0010523924473673089,9.19092101976294e-05,-8.7279185,-4.4620257500000005,5.464405552450567e-16
379,124.312,1.0,0.6939327243288359,0.1464169363909386,-0.6900061534969253,-0.14460552073944444,0.0007834598460855594,-0.0010685498599920526,6.939586669012206e-05,-8.7279185,-4.4620257500000005,5.464405552450567e-16
380,124.424,1.0,0.6940448115528245,0.14672175044925456,-0.689735931229813,-0.1450462800574226,0.000743316428270188,-0.0010703310050653766,4.391981069985828e-05,-8.7279185,-4.4620257500000005,5.464405552450567e-16
381,124.518,1.0,0.6941388847586721,0.14697757653391255,-0.6895091375413438,-0.14541620305643993,0.000709624631175149,-0.0010718258946804877,2.2538120850889957e-05,-8.7279185,-4.4620257500000005,5.464405552450567e-16
382,124.61,1.0,0.6941274171624153,0.1473007373485648,-0.6893549934889752,-0.1458723450681401,0.0007164576494383565,-0.0010550287519711478,-2.300256837263583e-06,-8.7279185,-4.4651904458167335,5.468281187052805e-16
383,124.735,1.0,0.6940927317258436,0.14775324308874851,-0.6891580731719691,-0.14650946412695648,0.000733086778095875,-0.001028837275735856,-3.6769801661728035e-05,-8.7279185,-4.47007423565737,5.47426210464885e-16
384,124.796,1.0,0.6945573620528446,0.1452685506831137,-0.6895622182638218,-0.14413429618519813,0.0007635940456921208,-0.0011044006195084935,0.08467687892911963,-8.7279185,-4.471226583783784,5.475673324093365e-16
385,124.91,1.0,0.6979568212775316,0.12640444006940219,-0.6929468526563918,-0.1255770142143135,0.0009383046123087621,-0.0017099705804318075,0.6883500405181575,-8.7279185,-4.466910143243243,5.470387209001682e-16
386,125.006,0.2857142857142857,0.7008195237825314,0.11051887323680105,-0.6957970710922404,-0.10994982939672449,0.001085429299985952,-0.0022199242317357142,1.196706387119516,-8.7279185,-4.463275245945947,5.465935743661317e-16
387,125.103,0.3333333333333333,0.32861304811563646,0.08219907853644393,-0.3262146423604238,-0.08164034067659959,0.0010439641571657712,-0.0020330766473765187,1.0085661117572897,-8.069170969421572,-4.742123125206576,-0.031121930578507814
388,125.182,0.7037037037037037,-0.13204401192486726,0.05398233858283824,0.13119806254923427,-0.053326686439293475,0.0009303532027512478,-0.0015860549597577038,0.5606265212726805,-7.256029486363656,-5.087868322727264,-0.06953806363636207
389,125.31,0.5472972972972973,-0.7093126675943386,0.018504741727831377,0.7044288704474283,-0.017685591173761103,0.0007814249845715359,-0.001040195563273226,-0.0006575862129955766,-6.652768345381482,-4.875834872690832,-0.10397412048192857
390,125.39,0.9943181818181818,-0.7092838541113562,0.01818093915642161,0.7044769206579524,-0.017245791733030532,0.0007633422347099852,-0.0010797330491566439,-0.0004978318138601674,-7.7996344016063786,-3.0956719008032856,-0.06616534939759151
391,125.466,0.9829545454545454,-0.709256481302523,0.017873326713582348,0.7045225683579504,-0.016827982264336513,0.0007461636223415134,-0.0011172936607458882,-0.00034606513468153855,-8.889157155019959,-1.404517077510227,-0.030247016867473664
392,125.605,1.0,-0.7092013392672465,0.01745906308603393,0.7046023557389642,-0.01624737071861807,0.000754487607628108,-0.001117954123765229,-0.0002500106231309484,-9.80665,0.01667130499999989,-2.041646030585913e-18
393,125.697,1.0,-0.7091619740019406,0.01726865795965138,0.7046530749864137,-0.015966743740373785,0.0007824435681104665,-0.001079964838922023,-0.00028895607264712507,-9.80665,0.013062457799999937,-1.5996897133767302e-18
394,125.838,0.9771428571428571,-0.7090912936913404,0.016910564876890098,0.7047439579049221,-0.015465931969532052,0.0008047186890617016,-0.0010360306575894367,-0.00033933885674923455,-9.80665,0.00980665,-1.2009682532858392e-18
395,125.872,1.0,-0.7090706791424528,0.016801346005783292,0.7047704106884288,-0.015320765199182013,0.0008029917133972049,-0.0010303671723231676,-0.000348276879638433,-9.80665,0.00980665,-1.2009682532858392e-18
396,126.0,0.9885714285714285,-0.7089930714289935,0.016390169079263633,0.7048699976381012,-0.01477425500492314,0.0007964901579543949,-0.0010090458160266283,-0.0003819259069859977,-9.80665,0.00980665,-1.2009682532858392e-18
397,126.082,0.9828571428571429,-0.7089350364961625,0.016056863222272233,0.7049445553684598,-0.014349196107488353,0.0007938268631696703,-0.001001256655901671,-0.0004505703626200468,-9.80665,0.00980665,-1.2009682532858392e-18
398,126.192,0.9942857142857143,-0.7088507476740704,0.015555651892806416,0.7050528991048676,-0.013720989131101929,0.0007914163977839054,-0.0009953505713492636,-0.0005790968267246985,-9.80665,0.00980665,-1.2009682532858392e-18
399,126.305,1.0,-0.7087621642273002,0.015025684256690658,0.7051662377978355,-0.01306203483523744,0.0007876206278553346,-0.001005008216163827,-0.0006846325654011698,-9.80665,0.00980665,-1.2009682532858392e-18
400,126.404,0.9885714285714285,-0.7086784007664775,0.014514849909420285,0.7052718260650485,-0.012442735524806655,0.0007802257332803004,-0.0010619629654915073,-0.0006953822522764165,-9.80665,0.00980665,-1.2009682532858392e-18
401,126.486,0.9942528735632183,-0.7086090209302404,0.014091734591479084,0.7053592830136491,-0.011929780540409335,0.0007741006690868364,-0.0011091376063487872,-0.0007042860333246022,-9.80665,0.00980665,-1.2009682532858392e-18
402,126.616,1.0,-0.7084975513860302,0.0134307529575067,0.7054969538651235,-0.011135551358546703,0.0008022035710536033,-0.001106236413323197,-0.0007511897500694156,-9.80665,0.00980665,-1.2009682532858392e-18
403,126.701,1.0,-0.7084241385574214,0.013002085551055257,0.7055866183781531,-0.010623047960087185,0.0008341179478980835,-0.0010765218138545187,-0.0007935975784394677,-9.80665,0.00980665,-1.2009682532858392e-18
404,126.812,0.9942857142857143,-0.7083284584867192,0.012454264467551185,0.7057024262652929,-0.009970331945739003,0.0008510563441086595,-0.0010479663368314508,-0.0008435293759684982,-9.80665,0.00980665,-1.2009682532858392e-18
405,126.909,1.0,-0.7082452711497426,0.012002527936459137,0.7058007334411401,-0.009437270402568426,0.0008100702008232473,-0.00104612397775054,-0.000874877733644098,-9.80665,0.00980665,-1.2009682532858392e-18
406,126.977,1.0,-0.7081869542537176,0.011685846656930728,0.7058696498118373,-0.009063577774366414,0.000781337646767498,-0.001044832427054644,-0.0008968539019115261,-9.80665,0.00980665,-1.2009682532858392e-18
407,127.092,0.9942857142857143,-0.7080879127821025,0.01116291096256189,0.70598507566609,-0.008450752253538493,0.0007877856463541708,-0.0010526844788432473,-0.0009468617619026463,-9.80665,0.012209082329317033,-1.4951813595124616e-18
408,127.196,0.9942857142857143,-0.7079980107572262,0.010700104992276215,0.706088561033361,-0.00791187947549783,0.0008376801199930506,-0.0010678202211183592,-0.0010023674091705688,-9.80665,0.016305032530120292,-1.996790589800529e-18
409,127.291,1.0,-0.7079159220813778,0.010280785860536686,0.7061827870922586,-0.007423846073040682,0.0008733403037369003,-0.0010817800620682087,-0.00104878181907018,-9.80665,0.01918352649402408,-2.3493044317265038e-18
410,127.403,0.9943181818181818,-0.7078194442437482,0.009817367435663905,0.70629113918907,-0.006886347842258871,0.0008261048249377158,-0.0010994436670154102,-0.0010648988793971411,-9.80665,0.01480765079681266,-1.8134142151208378e-18
411,127.475,0.9772727272727273,-0.7077574227767007,0.009519455591102904,0.7063607941084488,-0.00654081326532779,0.0007957391599953902,-0.0011107988416243226,-0.001075259846750185,-9.80665,0.011994587848605989,-1.4689133615887063e-18
412,127.603,0.9887640449438202,-0.7076476927392114,0.009013154368782576,0.7064825563626455,-0.005953641811618099,0.0007866810210980452,-0.0011029626596719055,-0.0011236693616956406,-9.80665,0.00980665,-1.2009682532858392e-18
413,127.712,0.9943502824858758,-0.7075546020178847,0.00859745257604156,0.7065848743686346,-0.005471585771663206,0.0008087226385250682,-0.0010777291832491764,-0.0011847562692128106,-9.80665,0.00980665,-1.2009682532858392e-18
414,127.8,0.9943502824858758,-0.7074797391317028,0.008267864916080406,0.706666844758985,-0.005089127818802839,0.0008322491600873827,-0.0010631330045740525,-0.0012246753616505352,-9.80665,0.00980665,-1.2009682532858392e-18
415,127.891,1.0,-0.7074034241491693,0.007949666730404727,0.7067492250304864,-0.0047188861193601704,0.0008781015268437213,-0.0010697295773310599,-0.0012306593237893587,-9.80665,0.00980665,-1.2009682532858392e-18
416,128.011,1.0,-0.707302789007367,0.0075300647273159925,0.7068578583555432,-0.004230655306908384,0.0009385661863026191,-0.001078428354593046,-0.0012385502628735204,-9.80665,0.00980665,-1.2009682532858392e-18
417,128.109,0.9943502824858758,-0.2603468155191304,0.00300094458989111,0.2600606449489446,-0.0018293737819294344,0.000938526570564135,-0.0010843863347545274,-0.001289063517004256,-9.80665,0.00980665,-1.2009682532858392e-18
418,128.211,0.9943502824858758,0.3167150077499492,-0.0027610007476712335,-0.3168389777810552,0.0011712058120799257,0.0009261146078351871,-0.001090300622396172,-0.0013526700139045785,-9.80665,0.00980665,-1.2009682532858392e-18
419,128.299,1.0,0.7070645959148208,-0.006601336734574508,-0.7071111336625646,0.0031339731904900035,0.0009174509647600499,-0.001094416185123883,-0.001398908196609807,-9.80665,0.00980665,-1.2009682532858392e-18
420,128.391,0.9943502824858758,0.7069882704389654,-0.006323155051531343,-0.7071911675649373,0.0028093755724471585,0.0009161565957127117,-0.0010949716767067969,-0.0014144526053728019,-9.80665,0.00980665,-1.2009682532858392e-18
421,128.503,0.9943502824858758,0.7068953524683589,-0.00598449908956571,-0.7072886001417389,0.002414213254829734,0.0009145808420898651,-0.0010956479273294744,-0.0014333762334321025,-9.80665,0.00980665,-1.2009682532858392e-18
422,128.624,1.0,0.7068704637262321,-0.00589378767118205,-0.7073146981533822,0.0023083662054679144,0.0009141587652266026,-0.0010958290658891203,-0.0014384450623765586,-9.80665,0.00980665,-1.2009682532858392e-18
