,time,img_sim,orientation.x,orientation.y,orientation.z,orientation.w,angular_velocity.x,angular_velocity.y,angular_velocity.z,linear_acceleration.x,linear_acceleration.y,linear_acceleration.z
0,86.573,0.9959016393442623,-0.00044076070216395047,0.00035704221443683777,-0.707860423692321,-0.7063521067569173,0.0003707764505522846,-0.00031693492948883816,-0.00021854816317528543,0.0,-0.0098066499999988,9.80665
1,86.695,0.9815573770491803,-0.00042741979282894394,0.00035905567985408145,-0.7078572712531137,-0.7063552730178154,0.0003299575440287471,-0.000311836929073403,-0.0002621127319662054,0.0,-0.0098066499999988,9.80665
2,86.774,0.9938398357289527,-0.0004187810072759471,0.0003603594812308214,-0.7078552299195288,-0.7063573233015117,0.00030352562914874885,-0.0003085357648699652,-0.000290322575691476,0.0,-0.0098066499999988,9.80665
3,86.903,0.9958932238193019,-0.000410986262085293,0.0003570696195835408,-0.7078520902179554,-0.7063604758821725,0.0003071356540642295,-0.00029559534419220355,-0.0002781226951582539,0.0,-0.0098066499999988,9.80665
4,86.986,0.9876796714579056,-0.00040662957391116364,0.0003543875005188736,-0.7078500903011073,-0.7063624839044728,0.0003143383241750195,-0.0002864816027092359,-0.00026419406895436716,0.0,-0.0098066499999988,9.80665
5,87.08,0.9672131147540983,-0.00040046441092642267,0.00035327412753649877,-0.7078477194558621,-0.706364863801934,0.00031156604193555577,-0.0002801702389135527,-0.0002513765991689546,0.0,-0.008361048207170376,9.80665
6,87.188,0.9918032786885246,-0.0003912020375642332,0.00035540074738283094,-0.7078448081016903,-0.706367785330935,0.00028903579927954895,-0.0002800169101947793,-0.00024188419400929527,0.0,-0.0041414537848593,9.80665
7,87.282,0.9836065573770492,-0.00038314034223047656,0.00035725169428611986,-0.7078422741452814,-0.7063703281432138,0.00026942614363450795,-0.00027988345742103207,-0.00023362228581477778,0.0,-0.0004688438247000305,9.80665
8,87.373,0.9938398357289527,-0.0003774163720626263,0.00035851762210731514,-0.7078390427051343,-0.7063735687000681,0.0002939919142817429,-0.00028765397709719587,-0.00023735250099973562,0.0,-0.00311134678714758,9.80665
9,87.476,0.9958932238193019,-0.0003712952807978007,0.00035986005986550875,-0.7078352513190067,-0.7063773704985447,0.00032928457867492384,-0.00029780737315603757,-0.0002435910765382731,0.0,-0.007167912851404235,9.80665
10,87.596,0.9856262833675564,-0.00036458759926305816,0.0003617012607360787,-0.7078308203108978,-0.7063818131900064,0.00034925035623249625,-0.0003057242510193545,-0.00024479794794590113,0.0,-0.0098066499999988,9.80665
11,87.682,0.9897750511247444,-0.0003601642771954965,0.0003632719203713225,-0.7078276321989797,-0.7063850092695348,0.000344396083539958,-0.000307853548696989,-0.00024017142196599813,0.0,-0.0098066499999988,9.80665
12,87.779,0.983640081799591,-0.0003551751813751073,0.0003650434783320043,-0.7078240363053045,-0.7063886141499333,0.0003389209155030256,-0.00031025519840315806,-0.0002349531310351775,0.0,-0.0098066499999988,9.80665
13,87.893,0.9815950920245399,-0.00034890946203861695,0.00036749038368345815,-0.7078187749156607,-0.7063938879770807,0.00033508019292301044,-0.00029890656201187767,-0.00023587753203026344,0.0,-0.0098066499999988,9.80665
14,87.999,0.9815950920245399,-0.00034302237812252104,0.0003698209663178291,-0.7078137255812778,-0.7063989491609197,0.00033190278659257983,-0.0002862030192728913,-0.00023780840857667073,0.0,-0.0098066499999988,9.80665
15,88.083,0.9857142857142858,-0.0003388933998361846,0.00037218625285048604,-0.7078103336275803,-0.7064023486613635,0.0003267894451463769,-0.0002807305822662817,-0.00023454140820280793,0.0,-0.0098066499999988,9.80665
16,88.2,0.9897959183673469,-0.00033392568940699416,0.0003762380527456749,-0.7078064993412309,-0.7064061907664277,0.0003158759317162311,-0.00027981994254329054,-0.00022298329072889414,0.0,-0.0098066499999988,9.80665
17,88.322,0.9877300613496932,-0.0003301817531345634,0.0003790225436279625,-0.7078025761736089,-0.7064101220045695,0.0003165454903185492,-0.0002783429750473236,-0.00022104964953899512,0.0,-0.0098066499999988,9.80665
18,88.377,0.9918200408997955,-0.000330570084679573,0.00037819532357598193,-0.7078009159292912,-0.7064117857682121,0.00033426763320128206,-0.00027691463326911907,-0.0002348064399374827,0.0,-0.0098066499999988,9.80665
19,88.493,0.9571428571428572,-0.0003313891112108661,0.0003764506412845319,-0.7077974143230937,-0.7064152947969853,0.000371645243644869,-0.0002739021306096328,-0.00026382076150520574,0.0,-0.0098066499999988,9.80665
20,88.599,0.9856850715746421,-0.00033073641225349977,0.00037653507088858255,-0.7077938688428751,-0.7064188474470291,0.0003785835937327848,-0.00029288267436626585,-0.00026684716451482685,0.0,-0.0098066499999988,9.80665
21,88.693,0.9815950920245399,-0.0003290894876264191,0.0003778896726788106,-0.7077904611722522,-0.706422261770917,0.0003639880849087465,-0.0003262824681309211,-0.00025162634377616494,0.0,-0.0098066499999988,9.80665
22,88.787,0.9897959183673469,-0.0003274425629993381,0.00037924427446903885,-0.7077870535016293,-0.706425676094805,0.000349392576084706,-0.00035968226189558134,-0.00023640552303750079,0.0,-0.0098066499999988,9.80665
23,88.886,0.9897750511247444,-0.00032538980909223395,0.0003808864106617338,-0.7077833978733638,-0.7064293387815749,0.0003352624584222228,-0.0003321811931673472,-0.00023445566580630845,0.0,-0.0098066499999988,9.80665
24,88.996,0.9938650306748467,-0.00032308615945306836,0.0003827264531063594,-0.7077793312829205,-0.7064334132184812,0.0003196513418806733,-0.00029713144316338366,-0.00023329851846210666,0.0,-0.0098066499999988,9.80665
25,89.085,0.9938775510204082,-0.0003209724246124348,0.00038410907891986315,-0.7077759665770085,-0.7064367845310316,0.0003001332005951592,-0.0002913117497228059,-0.00022861736337654416,0.0,-0.0098066499999988,9.80665
26,89.209,0.9898373983739838,-0.00031763786332906076,0.0003858699552681126,-0.7077711625727796,-0.7064415981424818,0.0002622011962812404,-0.00031834407104179194,-0.0002162565190810713,0.0,-0.0098066499999988,9.80665
27,89.269,0.991869918699187,-0.00031602436593387986,0.00038672199221081397,-0.7077688380546043,-0.7064439273093124,0.00024384700064547388,-0.0003314242265187202,-0.0002102754653897137,0.0,-0.0098066499999988,9.80665
28,89.359,0.9898167006109979,-0.0003144405825829415,0.0003883160321663664,-0.7077648122525488,-0.7064479604430838,0.0002615299785233242,-0.0003066542743894488,-0.00021896682379570485,0.0,-0.0098066499999988,9.80665
29,89.488,0.9837067209775967,-0.0003126064676332485,0.00039076551774247113,-0.7077587609900136,-0.7064540224013873,0.00031044180641800513,-0.0002480139736729891,-0.0002406305753842991,0.0,-0.0098066499999988,9.80665
30,89.58,0.9939148073022313,-0.0003130298617966836,0.0003908585182572129,-0.7077549008228506,-0.7064578894531558,0.00046691515832208606,-0.00023495992249809256,-0.0002517929815221578,0.0,-0.0098066499999988,9.80665
31,89.693,0.9776876267748479,-0.00031685804786947606,0.00038781272234373357,-0.7077510297489032,-0.7064617675628639,0.000891419465770017,-0.0002738890609471131,-0.0002573111068923026,0.0,-0.0098066499999988,9.80665
32,89.773,0.9878296146044625,-0.0003195682680980017,0.0003856564066527748,-0.7077482891655777,-0.706464513127259,0.0011919534887419984,-0.0003014495129464192,-0.00026121774432249356,0.0,-0.0098066499999988,9.80665
33,89.871,0.947261663286004,-0.00032148897155309956,0.0003857879283028356,-0.7077440447645488,-0.7064687642440628,0.0009662587521597815,-0.00031522504903841756,-0.0002652744870865716,0.0,-0.00678620179999887,9.8126908964
34,89.988,0.9918533604887984,-0.0003233264347411237,0.0003868478488056368,-0.7077386885988992,-0.7064741286274338,0.0005034479033201829,-0.0003251638456713411,-0.0002698804130777717,0.0,-0.0021966895999986948,9.821869920800001
35,90.055,0.9837067209775967,-0.00032406767693048756,0.0003874300326577168,-0.7077357428229322,-0.7064770790352066,0.00028006665080871615,-0.0003274771146220041,-0.0002731845750853084,0.0,-0.000433225502007202,9.825396848995984
36,90.191,0.9939148073022313,-0.00032235868398345475,0.0003883557163445569,-0.7077310181690069,-0.7064818123255949,0.0002570091020904975,-0.0002972633309286447,-0.0002867798303416649,0.0,-0.005789468072287955,9.814684363855422
37,90.288,0.9757085020242915,-0.0003211397698962329,0.00038901594662120025,-0.7077276483790748,-0.7064851882753572,0.00024056364454882732,-0.0002757137940297052,-0.00029647644622303655,0.0,-0.009609729317267503,9.807043841365463
38,90.388,0.9939148073022313,-0.0003222231838216659,0.0003887733890155738,-0.7077238080528561,-0.7064890349438048,0.0002768763366648708,-0.00029910642386687616,-0.00027201012135409387,0.0,-0.0098066499999988,9.80665
39,90.491,0.9837728194726166,-0.00032346595422686625,0.00038847350712406157,-0.7077198326586689,-0.7064930168700482,0.00031716602929268977,-0.000325673301371612,-0.00024494155825648,0.0,-0.0098066499999988,9.80665
40,90.573,0.9878296146044625,-0.00032448384949335574,0.00038889308358963615,-0.707716605964519,-0.7064962484614802,0.00033765358838204116,-0.0003437908876165512,-0.00022619959174086983,0.0,-0.0098066499999988,9.80665
41,90.693,0.9878296146044625,-0.0003260539026376389,0.0003913650668668568,-0.70771170950635,-0.7065011512312597,0.00033493133530162843,-0.00036174511776799437,-0.0002066966731346262,0.0,-0.0098066499999988,9.80665
42,90.77,0.9817444219066938,-0.0003270613534052206,0.00039295125613640657,-0.7077085676123582,-0.7065042971752014,0.00033318455624169706,-0.00037326574878183635,-0.00019418230036228733,0.0,-0.0098066499999988,9.80665
43,90.86,0.9817444219066938,-0.00032814706574985775,0.0003934171848947364,-0.7077050196859073,-0.7065078503565922,0.00032046404337589013,-0.0003649887098672699,-0.00018693515133247314,0.0,-0.0098066499999988,9.80665
44,90.984,0.9898785425101214,-0.0003295969295795059,0.00039336369975470354,-0.7077001937659478,-0.7065126837778338,0.000297587805209743,-0.0003426914714860287,-0.00018064766499516877,0.0,-0.0098066499999988,9.80665
45,91.077,0.9838383838383838,-0.00033188104321724653,0.0003923207860458974,-0.7076961701711121,-0.7065167136052325,0.0002935549149900082,-0.0003278309603887749,-0.00019486609809712496,0.0,-0.0098066499999988,9.80665
46,91.177,0.9939516129032258,-0.00033657004049264137,0.00038932824153379913,-0.7076910896093944,-0.7065218020004931,0.00031370718407340873,-0.00031532701561728287,-0.0002454839206432423,0.0,-0.0098066499999988,9.80665
47,91.293,0.9533468559837728,-0.00034200927733209885,0.0003858568898997655,-0.7076851961578019,-0.7065277045389953,0.00033708381621015124,-0.0003008224396823534,-0.0003042005947967333,0.0,-0.0098066499999988,9.80665
48,91.373,0.9797160243407708,-0.0003428099137461873,0.00038657843683391024,-0.707681935445457,-0.7065309697639081,0.00034618211258202877,-0.00029372547299135414,-0.00030330918892286697,0.0,-0.0098066499999988,9.80665
49,91.485,0.9837728194726166,-0.00034387851629592777,0.0003876438153969194,-0.707677384691615,-0.7065355268042566,0.0003587952600792053,-0.00028384122170973554,-0.00030132780387066296,0.0,-0.0098066499999988,9.80665
50,91.587,0.9878542510121457,-0.0003454510711535896,0.00038847193290949595,-0.7076729216106938,-0.7065399958433927,0.0003781110245775948,-0.0002995647218074636,-0.0003045276337612411,0.0,-0.0098066499999988,9.80665
51,91.686,0.9838383838383838,-0.00034777556882151293,0.0003890864035890875,-0.7076681654462288,-0.7065447581011304,0.00040728457155166423,-0.000347753276794905,-0.0003142977716176882,0.0,-0.0098066499999988,9.80665
52,91.786,0.9939516129032258,-0.00035012354626385954,0.00038970708104322035,-0.7076633612396985,-0.7065495684624816,0.0004367528008183983,-0.000396428584863023,-0.0003241665977353106,0.0,-0.0098066499999988,9.80665
53,91.868,0.9939516129032258,-0.00035205848834582107,0.00039017385599844694,-0.7076599168342634,-0.7065530170277072,0.00041585735964173344,-0.00039563923705447174,-0.0003278538318252582,0.0,-0.0098066499999988,9.80665
54,91.983,0.9939516129032258,-0.00035477300093195245,0.0003908246381346781,-0.7076551313480622,-0.7065578082669692,0.0003824493329715997,-0.00039082549654310966,-0.0003326237820871769,0.0,-0.0098066499999988,9.80665
55,92.058,0.9838383838383838,-0.00035633004001213,0.00039124810967990797,-0.7076520116705368,-0.7065609317806821,0.0003671879835672477,-0.0003874205191726024,-0.00033191038963868816,0.0,-0.0098066499999988,9.80665
56,92.188,0.9858585858585859,-0.0003576655958344277,0.00039197604479745865,-0.70764661248584,-0.7065663381528934,0.0003824501525698682,-0.00037982105071231095,-0.00030623064202249203,0.0,-0.0098066499999988,9.80665
57,92.27,0.9939393939393939,-0.0003585080233531078,0.00039243520387160596,-0.707643206846262,-0.7065697483261343,0.0003920770591715207,-0.0003750275398373581,-0.0002900326473722767,0.0,-0.0098066499999988,9.80665
58,92.405,0.9939393939393939,-0.000360959681223408,0.00039500143547345517,-0.7076380473097551,-0.7065749129605171,0.00039305345958985216,-0.00036459702665984933,-0.00026144957671084143,0.0,-0.0098066499999988,9.80665
59,92.496,0.9939393939393939,-0.0003627834770970913,0.0003970223405801418,-0.7076346413220426,-0.7065783220041373,0.0003913202574083875,-0.0003571578856215381,-0.0002418744572284965,0.0,-0.0098066499999988,9.80665
60,92.575,0.9858585858585859,-0.0003645103030238128,0.0003983135226118374,-0.7076317114327456,-0.7065812546561349,0.00039018494398220926,-0.000353427260555888,-0.00023942221873383786,0.0,-0.0098066499999988,9.80665
61,92.653,0.9818181818181818,-0.0003664467362101317,0.00039884132874488416,-0.7076288621033711,-0.7065841068902602,0.00038965961212819686,-0.00035414243283883557,-0.0002604515659230138,0.0,-0.0098066499999988,9.80665
62,92.756,0.9858585858585859,-0.000369003821058732,0.0003995383035103176,-0.707625099527402,-0.7065878733019898,0.0003889659046799498,-0.0003550868270073431,-0.0002882210884933333,0.0,-0.0098066499999988,9.80665
63,92.893,0.9939393939393939,-0.0003735739690974178,0.0004001569611715456,-0.7076200437210464,-0.7065929337174142,0.0003815643668853754,-0.00035996715210292844,-0.0003039563924400693,0.0,-0.0098066499999988,9.80665
64,92.985,0.9939393939393939,-0.0003769442892095957,0.0004004929203965962,-0.7076166353798247,-0.7065963450267361,0.00037492400492574894,-0.00036417862200512145,-0.0003090584312057292,0.0,-0.0098066499999988,9.80665
65,93.093,0.9939393939393939,-0.00038124494817509257,0.0003997937698331661,-0.7076127860813349,-0.7066001979530007,0.0003889456569464013,-0.00036866778223102094,-0.0002893927220973251,0.0,-0.0098066499999988,9.80665
66,93.191,0.9838383838383838,-0.00038553780573245464,0.00039791900042121335,-0.7076094653773497,-0.7066035221116033,0.00042641498279350246,-0.00037222548729710177,-0.00024244842380397293,0.0,-0.0098066499999988,9.80665
67,93.281,0.9838383838383838,-0.00038948022593819555,0.0003961972734102362,-0.7076064157512407,-0.70660657491032,0.00046082558816329096,-0.0003754927674598292,-0.0001993363131264025,0.0,-0.0098066499999988,9.80665
68,93.382,0.9858585858585859,-0.000393087654897583,0.0003941575048102893,-0.7076029671369768,-0.706610027499797,0.00044179246756321334,-0.00035855013535240557,-0.00023162925609490398,0.0,-0.0098066499999988,9.80665
69,93.461,0.9959595959595959,-0.0003958149218609603,0.00039254960820607867,-0.7076002666721533,-0.7066127311218802,0.00042024383382820456,-0.0003429165986086077,-0.0002662099331368017,0.0,-0.0098066499999988,9.80665
70,93.573,0.9919354838709677,-0.0003997258514502131,0.00039045647628449206,-0.7075963108069767,-0.7066166914742126,0.0003981597947573231,-0.0003289398232942459,-0.00030355738770020655,0.0,-0.0098066499999988,9.80665
71,93.693,0.9838709677419355,-0.00040408177317601435,0.00038890890662946376,-0.7075915975162858,-0.7066214096137376,0.00040606412174545864,-0.0003444913643702619,-0.0003000290843805201,0.0,-0.0098066499999988,9.80665
72,93.773,0.9939516129032258,-0.000406985720993215,0.0003878771935261116,-0.7075884553224917,-0.7066245550400876,0.00041133367307088207,-0.00035485905842093856,-0.0002976768821673959,0.0,-0.0098066499999988,9.80665
73,93.892,0.9878787878787879,-0.0004140557405633888,0.00038306451952668027,-0.7075843166719867,-0.7066286977550558,0.00039752985700033694,-0.0003492493949597707,-0.0002951650264440105,0.0,-0.0098066499999988,9.80665
74,93.99,0.98989898989899,-0.00042039182844177514,0.0003784888763946293,-0.7075810083665564,-0.7066320092687336,0.00038211966748349474,-0.00034070139110554075,-0.00029328079952392735,0.0,-0.0098066499999988,9.80665
75,94.092,0.9616161616161616,-0.0004247251451242984,0.0003758525532997118,-0.7075778304579172,-0.7066351902998831,0.0003726850367384032,-0.0003330903018359097,-0.00028957588644698274,0.0,-0.0098066499999988,9.80665
76,94.185,0.9919354838709677,-0.00042626330377531157,0.00037571728754490626,-0.7075752161554723,-0.7066378072181277,0.0003711296513210982,-0.00032752268831245604,-0.0002843373373616486,0.0,-0.0098066499999988,9.80665
77,94.284,0.9879032258064516,-0.0004279006984683256,0.0003755732949672101,-0.7075724331883535,-0.7066405929698075,0.0003694739184575155,-0.00032159587391652144,-0.0002787608173675832,0.0,-0.0098066499999988,9.80665
78,94.39,0.9879032258064516,-0.00042929068493475196,0.00037818095341904845,-0.7075688496317918,-0.7066441789692393,0.00037675900031797536,-0.0003378997456579729,-0.0002942131246658918,0.0,-0.0098066499999988,9.80665
79,94.493,0.9878787878787879,-0.00043060046949732134,0.00038102555063583994,-0.7075652995600732,-0.7066477313540932,0.00038485702531165366,-0.00035629056552593293,-0.0003116384701921139,0.0,-0.0098066499999988,9.80665
80,94.573,0.98989898989899,-0.0004315897176725816,0.00038314362707362503,-0.7075626627484576,-0.7066503698428833,0.00039667712117079547,-0.00036572109698317947,-0.00031180741568096084,0.0,-0.0098066499999988,9.80665
81,94.67,0.9838383838383838,-0.00043272934749782237,0.0003855170717533851,-0.7075597226145239,-0.7066533117557154,0.0004228015430271638,-0.0003668061501812191,-0.00028351305681280646,0.0,-0.0098066499999988,9.80665
82,94.829,0.9899193548387096,-0.0004338104568665847,0.00038978038894820546,-0.7075546524227669,-0.7066583854190345,0.0004451268646840228,-0.00037052919894146397,-0.00025110530178709315,0.0,-0.0098066499999988,9.80665
83,94.893,0.9919191919191919,-0.00043312339491317263,0.0003920281109413932,-0.7075522539404311,-0.7066607860910962,0.00042488303110336086,-0.00037480068775559114,-0.0002579850333859212,0.0,-0.0098066499999988,9.80665
84,94.979,0.9939393939393939,-0.0004322001554132753,0.00039504848736973897,-0.7075490309797923,-0.7066640119941792,0.0003976803797293499,-0.00038054050084957385,-0.00026722967272184526,0.0,-0.0098066499999988,9.80665
85,95.08,0.9858585858585859,-0.00043150988595340716,0.00039843709556292115,-0.707545612548584,-0.7066674332336678,0.0003881529509089859,-0.000384271211922169,-0.00028345576231367665,0.0,-0.0098066499999988,9.80665
86,95.189,0.9858585858585859,-0.00043160285180530425,0.00040175686442293495,-0.7075427031461893,-0.7066703442900122,0.00042555064079351256,-0.00038189564098138395,-0.0003123852297430822,0.0,-0.0098066499999988,9.80665
87,95.29,0.98989898989899,-0.0004316889944754107,0.0004048329805225813,-0.7075400072779154,-0.7066730416908451,0.0004602035460993647,-0.0003796944238711149,-0.000339191433507949,0.0,-0.0098066499999988,9.80665
88,95.373,0.9859154929577465,-0.0004338046082156525,0.00040544888169872785,-0.7075370420041507,-0.7066760089116064,0.00043783764762572025,-0.00036402677754351665,-0.00032464644065627974,0.0,-0.0098066499999988,9.80665
89,95.461,0.9636363636363636,-0.0004362166040486797,0.0004059439235340085,-0.7075338361490945,-0.7066792168877525,0.000409923948302687,-0.0003462703421667049,-0.0003062036513990496,0.0,-0.0098066499999988,9.80665
90,95.581,0.98989898989899,-0.0004388621213882048,0.00040728414711402593,-0.7075296187546442,-0.7066834369669096,0.00038446809825639565,-0.000338186687544968,-0.00029081562478317917,0.0,-0.0098066499999988,9.80665
91,95.66,0.9878787878787879,-0.00043961516185424287,0.00040918823067127266,-0.707527079211694,-0.7066859779582594,0.0003870773909286968,-0.0003576419079459192,-0.00029567951003490225,0.0,-0.0098066499999988,9.80665
92,95.804,0.9858585858585859,-0.0004409323963230684,0.0004126969098085363,-0.7075223646774523,-0.7066906952354587,0.00038870531506836575,-0.000390195891493932,-0.0003064884361810968,0.0,-0.0098066499999988,9.80665
93,95.893,0.98989898989899,-0.0004411644750404514,0.00041526414974078774,-0.7075185525534248,-0.7066945101352872,0.0003568430620944148,-0.0003797545474953957,-0.00033358510176185335,0.0,-0.0098066499999988,9.80665
94,96.011,0.9859154929577465,-0.00044147217491293677,0.00041866790605545815,-0.7075134982766241,-0.7066995680923632,0.0003145987266907507,-0.00036591096781194343,-0.00036951101792510264,0.0,-0.0098066499999988,9.80665
95,96.073,0.9879275653923542,-0.00044162640940814603,0.00042026906328942456,-0.707511196089004,-0.706701871891644,0.00031030319328419464,-0.00037012828059959754,-0.00036834051762708105,0.0,-0.0098066499999988,9.80665
96,96.199,0.9899396378269618,-0.0004419202581329143,0.0004230297162733906,-0.7075074485796365,-0.7067056218279283,0.00034873116831294937,-0.00040897109068464236,-0.0003131502198521084,0.0,-0.0098066499999988,9.80665
97,96.268,0.9818913480885312,-0.0004420811752917159,0.00042454150243127677,-0.7075053963721257,-0.7067076753644649,0.00036977505940012455,-0.0004302421533502621,-0.0002829269615467663,0.0,-0.0098066499999988,9.80665
98,96.39,0.9919517102615694,-0.0004424540796034321,0.00042699053321566306,-0.7075020401300446,-0.7067110336611417,0.00034156722365878754,-0.00041177042946219616,-0.0002414967317599821,0.0,-0.0098066499999988,9.80665
99,96.489,0.993963782696177,-0.000442778046145081,0.0004289237213221206,-0.7074993824411089,-0.7067136929459583,0.00030286518973298457,-0.0003832252966240055,-0.00021077964454889358,0.0,-0.0098066499999988,9.80665
100,96.584,0.9919678714859438,-0.00044480418255854476,0.0004289672882299134,-0.7074964770910648,-0.7067166001966005,0.00029017142262736446,-0.0003623491569618841,-0.00021209196844768882,0.0,-0.0098066499999988,9.80665
101,96.702,0.9839357429718876,-0.0004505166564083465,0.00042564626893507095,-0.7074922068402848,-0.7067208734959963,0.00031994848080309587,-0.00034855848708861646,-0.000271085508151973,0.0,-0.0098066499999988,9.80665
102,96.773,0.9939759036144579,-0.000453953822877295,0.00042364802851190296,-0.7074896374521037,-0.7067234447185141,0.00033786518529866337,-0.0003402607111479214,-0.00030658162102489026,0.0,-0.0098066499999988,9.80665
103,96.865,0.9698189134808853,-0.0004560386923582077,0.0004246784306445232,-0.7074861666499493,-0.7067269172953741,0.0003468990524628583,-0.0003472432130891599,-0.00033192616891130765,0.0,-0.0098066499999988,9.80665
104,97.02,0.993963782696177,-0.0004581426131065413,0.00042856679639507653,-0.7074802349901159,-0.7067328515871258,0.00035368603825789785,-0.0003695526912090277,-0.00036234688341063836,0.0,-0.0098066499999988,9.80665
105,97.09,0.9959758551307847,-0.0004587871097881825,0.0004297149019358962,-0.7074778383198447,-0.7067352496698525,0.00036285385542294814,-0.0003741910310843623,-0.00035489961153352655,0.0,-0.0098066499999988,9.80665
106,97.192,0.9899598393574297,-0.0004594630474292623,0.00043086440378778575,-0.7074745889657229,-0.7067385012748645,0.0003814673602691342,-0.0003762683650220642,-0.0003258061946377218,0.0,-0.0098066499999988,9.80665
107,97.281,0.9839357429718876,-0.0004600528361553026,0.0004318674005016896,-0.7074717537449695,-0.7067413384596299,0.0003977085556741437,-0.0003780809407128045,-0.00030042076224823884,0.0,-0.0098066499999988,9.80665
108,97.385,0.9959839357429718,-0.000460881268574799,0.00043313949301237894,-0.7074677638669706,-0.7067453310939799,0.0003894892074050824,-0.00038039832579061616,-0.00032640874342482483,0.0,-0.0098066499999988,9.80665
109,97.474,0.9899598393574297,-0.00046160875127669473,0.00043424142945078665,-0.7074642593552889,-0.7067488380258736,0.00037883477705378865,-0.00038240800592678146,-0.00035605681429336494,0.0,-0.0098066499999988,9.80665
110,97.558,0.9879518072289156,-0.00046225136705631314,0.0004351622367098217,-0.7074611648983419,-0.7067519346326605,0.00036682956007785567,-0.00037905595461724186,-0.00037332188150532644,0.0,-0.0098066499999988,9.80665
111,97.693,0.9859154929577465,-0.00046310736832352243,0.0004361630859917519,-0.7074570481588308,-0.7067560542872509,0.0003397032510327505,-0.00035257968795663697,-0.0003580084023463997,0.0,-0.0098066499999988,9.80665
112,97.799,0.9919517102615694,-0.00046380499029181763,0.0004369863755595376,-0.7074537959603612,-0.706759308751302,0.0003200557915261016,-0.000332926826318726,-0.00034691346902400254,0.0,-0.0098066499999988,9.80665
113,97.853,0.9778672032193159,-0.00046460643498478794,0.00043806059097450305,-0.7074517929438577,-0.7067613125145152,0.00033893616462591617,-0.0003427827123086878,-0.00035750978300347683,0.0,-0.0098066499999988,9.80665
114,97.989,0.9899598393574297,-0.0004666248882856028,0.0004407660223899723,-0.7074467483097012,-0.7067663590292745,0.0003864867339143522,-0.0003676049436908212,-0.0003841967959888275,0.0,-0.0098066499999988,9.80665
115,98.085,0.9979919678714859,-0.00046743108519278325,0.0004424380336686921,-0.7074435778934297,-0.7067695309225333,0.0003955043328460342,-0.00038000418164301603,-0.0003872495102696147,0.0,-0.0098066499999988,9.80665
116,98.192,0.9637826961770624,-0.00046732196579452176,0.00044391440658064275,-0.7074406803304844,-0.7067724303752451,0.0003655671491287686,-0.00038547984557226237,-0.00036493785982020475,0.0,-0.0098066499999988,9.80665
117,98.293,0.9839034205231388,-0.00046721896524102257,0.00044530799222650293,-0.7074379452477042,-0.7067751672418234,0.00033730868599377576,-0.0003906484629260377,-0.0003438773299567401,0.0,-0.0098066499999988,9.80665
118,98.385,0.9557344064386318,-0.00047005208210940894,0.00044360917875227825,-0.7074351778660447,-0.7067779363655439,0.0003631572898633161,-0.0003839329562699087,-0.0003233127246343663,0.0,-0.0098066499999988,9.80665
119,98.493,0.9637826961770624,-0.0004734937342375311,0.00044149746675693953,-0.7074319182785131,-0.7067811980027416,0.0003955426845751483,-0.000375597504203197,-0.00029911702954251243,0.0,-0.0098066499999988,9.80665
120,98.596,0.9759036144578314,-0.00047996924182561445,0.0004368705699803481,-0.7074287810129706,-0.7067843365579263,0.00042176369876337477,-0.0003765402287541639,-0.00028761024705126914,0.0,-0.0098066499999988,9.80665
121,98.686,0.9759036144578314,-0.0004887023303391235,0.00043031151548845125,-0.7074260121872581,-0.7067871058700225,0.00044018305621046973,-0.00038592677064373636,-0.00028869587674354804,0.0,-0.0098066499999988,9.80665
122,98.792,0.9979919678714859,-0.0004989879679217,0.00042258640686466237,-0.7074227511258634,-0.706790367504269,0.0004618769660926019,-0.00039698203109145405,-0.00028997450727000977,0.0,-0.0098066499999988,9.80665
123,98.891,0.9919517102615694,-0.0005099020012671302,0.00041316396534014156,-0.7074196593765375,-0.7067934595639869,0.00045517493344959787,-0.0003842780424747614,-0.0003212899027857935,0.0,-0.0098066499999988,9.80665
124,99.015,0.9959758551307847,-0.0005236777711931686,0.0004011837370400611,-0.7074157831619441,-0.706797336149202,0.0004446016137080737,-0.0003665050317067661,-0.0003629472630564105,0.0,-0.0098066499999988,9.80665
125,99.074,0.9919517102615694,-0.00046391603694690943,0.0002834404979093734,-0.7074206118118987,-0.7067925050589712,0.0014525999374679448,0.0033747990354997086,-0.00010880167455515908,0.0,-0.0098066499999988,9.80665
126,99.182,0.9919354838709677,-0.00022012271242542996,-0.00015915963287692022,-0.7074429743829388,-0.706770132718052,0.0053507891731509535,0.01778840503434613,0.0009116437642109742,0.0,-0.0098066499999988,9.80665
127,99.298,0.7555555555555555,4.487911209806404e-05,-0.0006385540936243647,-0.7074668331951883,-0.7067462390563837,0.00946322199262371,0.03300314391877317,0.001988362629231816,0.0,-0.009767579681273513,9.811182156972132
128,99.406,0.5963488843813387,0.0006288438406648218,-0.0015141408139246523,-0.7074718892485305,-0.7067385428019181,0.0053142043921919485,0.01863025356975917,0.0009227745933921324,0.0,-0.005547985258962617,10.30065510996019
129,99.488,0.5517241379310345,0.0010722244679099015,-0.002178938138597016,-0.707475728103846,-0.7067326993494535,0.002164024362234865,0.007717503489953505,0.0001137170106250585,0.0,-0.0023442191235047132,10.672291981673302
130,99.616,0.2786885245901639,0.0011922208552911713,-0.0022265088393774142,-0.7074808826112928,-0.70672752991105,-0.002217887843500778,-0.00560439508943416,-0.00039480086472336437,0.0,1.3616849242134609e-15,11.119001210483862
131,99.693,0.24619289340101522,0.0009607356852862972,-0.0017295572189937594,-0.7074835386458092,-0.7067265178802586,-0.004569674416063824,-0.011647716872351312,-0.00030027716181189076,0.0,1.385922206905781e-15,11.31691364294353
132,99.8,0.1171875,0.0006342932305548848,-0.0010368740105087494,-0.7074872065352233,-0.7067250593885622,-0.007651567225348336,-0.01960779812587713,-0.0001304951293276205,0.0,1.4179607284044301e-15,11.578528024501999
133,99.885,0.32558139534883723,0.00027743218242348803,-0.0004433669875364586,-0.7074896505418028,-0.7067228337438412,-0.006291492530460107,-0.016976140966393972,0.0007905061161924997,0.0,1.4098266804738077e-15,11.512108482669321
134,99.989,0.4523809523809524,-0.0001591978058784121,0.00028280631115897665,-0.7074926408557354,-0.7067201106020649,-0.00462740113906762,-0.01375623103008549,0.0019173782283581798,0.0,1.3998744335939886e-15,11.43084221972111
135,100.086,0.42857142857142855,-0.0004905345076104486,0.000795504880005819,-0.7074940633802997,-0.7067185948573445,-0.0027231870302930105,-0.010907916404306849,0.00197594322822986,0.0,1.3890783127345064e-15,11.342685202799998
136,100.212,0.3953488372093023,-0.000774297866828076,0.0011435146382167188,-0.7074932713555644,-0.7067186043251169,0.00043057080823943796,-0.00750722285360081,0.00013478306122115128,0.0,1.372130248744136e-15,11.204293757999993
137,100.264,0.39215686274509803,-0.0008914065547591389,0.0012871377130338894,-0.7074929444882132,-0.7067186082324515,0.0017321216622367191,-0.006103762023150955,-0.0006250608172267487,0.0,1.3651358096370004e-15,11.147179828400002
138,100.396,0.27450980392156865,-0.0011592229841062398,0.001452346833538412,-0.7074956387055488,-0.7067152206035714,0.00275693958097822,-0.004847590430044985,-4.3467866784207936e-05,0.0,1.346372228915591e-15,10.993963564457832
139,100.479,0.25,-0.00132144812257143,0.0015144406490343715,-0.7074980714040132,-0.7067123783913654,0.0029236385608129257,-0.004541149602297815,0.0008484061730718374,0.0,1.3343625463827333e-15,10.895897064457838
140,100.595,0.27450980392156865,-0.0015274933076400538,0.0015364514872429746,-0.7074972270067797,-0.7067127799128775,0.0036098229257292783,-0.0037668710746116578,0.001428430473971832,0.0,1.3169310683720377e-15,10.753558244621521
141,100.67,0.2549019607843137,-0.001642430597107619,0.0014934212548803687,-0.7074929288305903,-0.7067169061945956,0.004454139448457444,-0.002960375211465051,0.0012142638211134842,0.0,1.3050888515318676e-15,10.656859205776893
142,100.782,0.23076923076923078,-0.001814070282712502,0.001429162774552216,-0.7074865102208141,-0.7067230681086281,0.005714985455731399,-0.0017560080558328872,0.000894441619511712,0.0,1.2874044743838818e-15,10.512455307768926
143,100.875,0.2391304347826087,-0.0019345804067239548,0.0013190272797494423,-0.7074790283868824,-0.7067304281438258,0.005615894727408876,-0.0011481330180540513,0.0005735932418610796,0.0,1.2764178828302682e-15,10.422742979599997
144,100.99,0.2413793103448276,-0.002078363824718341,0.001169336426442031,-0.7074692648888081,-0.7067400627536747,0.005220834294334061,-0.0004897198835387949,0.00016369926219341184,0.0,1.2637116387105048e-15,10.318988622600003
145,101.08,0.4482758620689655,-0.0021730560097405244,0.0010430295845236,-0.7074647950358205,-0.7067444602788316,0.004595934315046577,0.00010333818047719793,-2.4845337808740423e-05,0.0,1.2550453178222396e-15,10.248222742231077
146,101.21,0.4523809523809524,-0.0022653387603974737,0.0008377389221593116,-0.7074662504293819,-0.7067429716206269,0.0029055899458073644,0.001154030336018793,3.274955528888154e-05,0.0,1.24571508637241e-15,10.172035620717136
147,101.278,0.38095238095238093,-0.002313609737664196,0.0007303561141533533,-0.7074670117121679,-0.7067421929378737,0.002021409814205127,0.001703623155840667,6.287611475533635e-05,0.0,1.2408346576140366e-15,10.132183895617528
148,101.395,0.4576271186440678,-0.0023224106603442905,0.00048641916025274356,-0.7079443028008457,-0.7062637242501729,0.0024093412326641086,0.002726786867173047,-0.00038574861239146365,0.0,1.235188613755972e-15,10.086080448795183
149,101.46,0.35443037974683544,-0.002318794500216835,0.00034412023881050203,-0.7082639869949534,-0.7059432543726625,0.002843557582068482,0.0033040932556389424,-0.0006923110473968127,0.0,1.2323670618356017e-15,10.063040728915665
150,101.559,0.18461538461538463,-0.0023086682676709117,0.00013294140746495102,-0.708690064086377,-0.7055161488191579,0.003263644406106317,0.003961041480302806,-0.0010542969997040913,0.0,1.228244644254467e-15,10.0293786348
151,101.694,0.15384615384615385,-0.0022491991780638544,-0.00010012707037859088,-0.7086697251343862,-0.7055367481516662,0.0014513249922310186,0.002658807042986101,-0.0005105161437531712,0.0,1.2243535071138209e-15,9.997605088799999
152,101.761,0.358974358974359,-0.0022196848891477636,-0.0002157980927157398,-0.7086596309878426,-0.7055469715240963,0.0005518775794189608,0.00201251291483642,-0.00024063971894793782,0.0,1.2224223501625373e-15,9.981835995600001
153,101.854,0.21008403361344538,-0.0021726473010802313,-0.00033648459062937924,-0.7086628103543757,-0.7055438839714163,0.0001043373480206369,0.0018931130506098359,0.0006642894902034016,0.0,1.2200156097829525e-15,9.962183469
154,101.969,0.31386861313868614,-0.0021097419698553866,-0.0004545813264106546,-0.7086801674598558,-0.705526572016648,0.00017645434360019679,0.0023528359457850342,0.002197463399032091,0.0,1.217253382800395e-15,9.939628174000001
155,102.055,0.3458646616541353,-0.0020577188265024334,-0.000539909564929898,-0.7086922942261232,-0.7055144951827945,0.00019263042183588914,0.0026647033840417867,0.003145133984275049,0.0,1.2146112526431652e-15,9.918053543999992
156,102.157,0.46616541353383456,-0.0019384181131273323,-0.0006065645735763537,-0.7086968092664677,-0.7055102263252232,-0.00022477981634437804,0.002665409576147795,0.0019693126215133876,0.0,1.2048113516963538e-15,9.838031280000001
157,102.27,0.4,-0.0018062516365450999,-0.0006804078674690032,-0.7087018112229277,-0.705505497100659,-0.0006872048841323661,0.00266619192622602,0.0006666869941400477,0.0,1.1939545986866499e-15,9.749379164
158,102.372,0.38461538461538464,-0.001674371482795976,-0.0007449515647165361,-0.7086909845357602,-0.7055166196988949,-0.0006371217197738528,0.0025419396581128195,9.357212402391152e-05,0.0,1.1834341167878655e-15,9.663472909999998
159,102.467,0.37142857142857144,-0.0015473241154728666,-0.0008043578822525347,-0.7086757568655461,-0.7055321396461598,-0.00043372784741222493,0.002384316669777033,-0.00023812739178538948,0.0,1.1733940221903961e-15,9.581489315999999
160,102.592,0.37142857142857144,-0.0013932842584334429,-0.0008685487512915933,-0.7086626666902507,-0.7055455465247494,-0.0003082785918377357,0.00204650648403912,-6.624007131902676e-05,0.0,1.1595348485474776e-15,9.468320574999998
161,102.653,0.40540540540540543,-0.001329501844630703,-0.0008877495130473079,-0.7086623049276325,-0.7055460039560416,-0.0003704034248367041,0.0017685158774256309,0.0005454045273364467,0.0,1.152208942202433e-15,9.40850000999999
162,102.756,0.35135135135135137,-0.001221803670504783,-0.0009201704714217058,-0.708661694082556,-0.7055467763400268,-0.00047530273301527227,0.001299121902324245,0.0015781814726069888,0.0,1.1398389691935895e-15,9.307491514999997
163,102.853,0.34146341463414637,-0.001134218762512849,-0.0011181534306561021,-0.7086572819512909,-0.7055509863319872,0.0003408639831468062,0.0021680419519543156,0.0013227222450077842,0.0,1.1279205602479815e-15,9.210170320400003
164,102.955,0.30357142857142855,-0.001052774019245042,-0.0014552589302738212,-0.7086496884532048,-0.7055580945264581,0.001903508994728346,0.004091044664382959,0.0001086224131285991,0.0,1.1151806890171249e-15,9.106141377199998
165,103.056,0.375,-0.0009782082868615544,-0.0017569120800768204,-0.7086426498599508,-0.7055647036088236,0.00315135061880573,0.005473720455542194,-0.000966309931129217,0.0,1.102306309341901e-15,9.0010140892
166,103.173,0.21052631578947367,-0.0009638333045849632,-0.0017256757967043298,-0.7086401856350127,-0.7055672746149936,0.0010505129685624576,0.0009003562889991325,-0.0007045147307217015,0.0,1.0843206087806913e-15,8.854149698799995
167,103.278,0.42105263157894735,-0.0009509326794649454,-0.001697643234703377,-0.708637974151094,-0.705569581928223,-0.000834854153450736,-0.0032039448861036143,-0.0004695703200995723,0.0,1.068179595456529e-15,8.72234832279999
168,103.379,0.36363636363636365,-0.001018281194288522,-0.0014943358330406261,-0.7086230984990525,-0.7055848230049558,-0.0014474048437847708,-0.004680215995165157,-0.0006320367185065148,0.0,1.060943010527233e-15,8.663257122509957
169,103.469,0.5,-0.0010947624409828164,-0.0012767610055503841,-0.7086072107784612,-0.7056010927691256,-0.0017452708420443673,-0.005485373599254341,-0.0008570149307142766,0.0,1.0562061237911659e-15,8.624577506972114
170,103.574,0.3559322033898305,-0.0011847529530459907,-0.0010350781170075688,-0.7085974684865939,-0.7056111718197274,-0.001739415134879304,-0.005985454134418688,-0.001045964744286126,0.0,1.051671982955679e-15,8.5875534373494
171,103.674,0.36065573770491804,-0.001272664388808195,-0.0008400760402075028,-0.7086136361643142,-0.7055950095626655,-0.0007112772072137279,-0.005190573683210468,-0.0010131529689463477,0.0,1.050225033252925e-15,8.575738196385542
172,103.785,0.62,-0.0013702460825042245,-0.0006236237349594677,-0.7086315822865836,-0.7055770694573267,0.0004299558924948611,-0.004308256382369498,-0.0009767318983192003,0.0,1.048618919082868e-15,8.562623278915662
173,103.883,0.72,-0.0014207020604440075,-0.0004726581818544239,-0.7086489911053706,-0.7055595867153305,0.00011471191266241524,-0.0032980796617578553,0.0008343970194361836,0.0,1.0591439505143424e-15,8.648566682669319
174,103.968,0.5531914893617021,-0.0014601446357940943,-0.0003465761954524548,-0.7086642799342561,-0.7055442241798928,-0.0003188083797556131,-0.0023939257007151256,0.0026205746694450086,0.0,1.0697182128241507e-15,8.734912087051795
175,104.078,0.4146341463414634,-0.0015002624820653258,-0.00020399369912001546,-0.7086757375952607,-0.7055327080693439,-0.0006484263378661096,-0.001409837787505234,0.003774863622384126,0.0,1.0834174806542213e-15,8.846775098
176,104.183,0.6129032258064516,-0.001510746460508482,-0.00012028385833938728,-0.7086654762077422,-0.705543007681511,-0.00037402234564068323,-0.0009439196099992613,0.0019309956399955822,0.0,1.0965320539801031e-15,8.953863716000004
177,104.281,0.6785714285714286,-0.0015205315070554273,-4.215467361080475e-05,-0.7086558989127251,-0.7055526206528671,-0.0001179119528969643,-0.0005090626443270412,0.00021005218976635764,0.0,1.1087723224175923e-15,9.053813092800004
178,104.379,0.75,-0.001503852510654954,-1.5794365537977259e-06,-0.7086635275574681,-0.7055449954089558,-0.00017223379306961225,-0.00040348393563181047,0.0001514725539600568,0.0,1.1190670222847583e-15,9.137875696600002
179,104.494,0.5833333333333334,-0.0014777625565818137,3.6785436901493344e-05,-0.7086767170810273,-0.7055318019272373,-0.00031243320810608313,-0.000360686419997365,0.0004921442533377498,0.0,1.130668375611499e-15,9.232607935599997
180,104.58,0.4166666666666667,-0.0014686847882006693,7.25346858047648e-05,-0.7086771778707823,-0.705531354801938,-0.00036684339493513234,-0.00029995795851573787,0.0007137074675410918,0.0,1.1387292745275534e-15,9.298430170399996
181,104.676,0.6666666666666666,-0.001478204287925491,0.00012573800208191168,-0.7086599802155553,-0.7055485990263738,-0.000332575649023056,-0.00017806124826893186,0.0008984943684190515,0.0,1.1465691952850038e-15,9.362447981599999
182,104.778,0.6428571428571429,-0.0014883187563831143,0.00018226652562638025,-0.7086417077068766,-0.7055669210148369,-0.0002961661689914749,-4.8545993631700455e-05,0.0010948304506018835,0.0,1.1548991110897948e-15,9.430466906000003
183,104.883,0.48148148148148145,-0.0014893015442713048,0.00018550474573677498,-0.7086424610334126,-0.7055661625919469,0.0004515611019450626,0.0002458476944593516,0.00067450596368875,0.0,1.161432378387669e-15,9.483815081999998
184,104.973,0.5185185185185185,-0.001488242253566561,0.00017719742373370652,-0.7086470522736917,-0.7055615556829086,0.0012357132683973513,0.0005306696781190022,0.00018869469058701443,0.0,1.166620561241864e-15,9.526179809999999
185,105.123,0.6,-0.0014942944347775455,0.00018790894167179726,-0.7086503208005179,-0.7055582568183006,0.0021761618088930955,0.0006636473495745992,-0.0001670865050982666,0.0,1.1738263707615794e-15,9.585019710000001
186,105.178,0.5,-0.0014993800453184988,0.00020084075160604786,-0.708649911962242,-0.7055586529842228,0.0023866199702024284,0.0005871064297389302,-0.0001311080483719737,0.0,1.1759400748873622e-15,9.602279414
187,105.275,0.7857142857142857,-0.0015083492129998185,0.00022364776185373125,-0.7086491909201919,-0.705559351676849,0.0027577916365116983,0.0004521160802105388,-6.765513378195217e-05,0.0,1.1796678803455618e-15,9.632719255600001
188,105.401,0.7777777777777778,-0.001490557069075098,0.00023479140334948503,-0.7086493936684641,-0.7055591820309625,0.0018583206921135725,-0.0011477284499839938,0.0005615128670814946,0.0,1.1830159310295502e-15,9.660058164143425
189,105.489,0.8888888888888888,-0.0014735390192374014,0.00023969188729167917,-0.7086497129606634,-0.7055588955480114,0.0010146478431501656,-0.0024872392539372606,0.0010862000211442485,0.0,1.1851212140233582e-15,9.67724910438247
190,105.576,0.8387096774193549,-0.001452541415697544,0.00025085364290367907,-0.7086450305440086,-0.7055636372821411,0.000416679830635426,-0.0030329881003829523,0.0007504432838054334,0.0,1.1870775361394003e-15,9.693223686746986
191,105.677,0.7674418604651163,-0.0014173994467388453,0.00028010816781521224,-0.7086267004808969,-0.7055821055563953,0.00033162838681675575,-0.0016580639738050583,-0.0018437528589097729,0.0,1.1890260950724427e-15,9.709134877911646
192,105.783,0.8529411764705882,-0.0013805177763465543,0.0003108109365342415,-0.7086074629889183,-0.7056014881016521,0.00024236647548232614,-0.0002150742964067403,-0.004566374553244044,0.0,1.1910711173190016e-15,9.725833751807228
193,105.872,0.7941176470588235,-0.0013352478962661935,0.000271913678478461,-0.708613519198362,-0.7055955037481078,0.00014363760413858406,5.821053488773354e-05,-0.00391171424579162,0.0,1.1920686479029242e-15,9.733979207171314
194,105.977,1.0,-0.0012784190927951863,0.00021055680151602557,-0.7086259751724792,-0.7055831206063778,2.1472276792310264e-05,0.00015624105890672796,-0.0024361280154852586,0.0,1.1930734420590597e-15,9.742183974103586
195,106.082,0.8918918918918919,-0.0012329307843567698,0.00015894352680057765,-0.7086415188828237,-0.7055676089621558,-2.560605847646908e-06,8.694809322890089e-05,-0.0010767015993192474,0.0,1.19408077270073e-15,9.750409453012049
196,106.18,0.8378378378378378,-0.0012135684015169678,0.00013061265436910093,-0.7086623140995841,-0.7055467606588369,0.00017484204563589505,-0.00031845681133202424,-4.444723241925938e-05,0.0,1.195026113173196e-15,9.758128743775101
197,106.262,0.8604651162790697,-0.0011973672240387695,0.00010690723049787033,-0.7086797141789143,-0.7055293161601417,0.0003232809989180109,-0.0006576731600461958,0.0008192758092723839,0.0,1.195817112344035e-15,9.764587742168676
198,106.356,0.8,-0.0012020588025333932,0.00010253655400929084,-0.7086900625488868,-0.7055189148096919,0.0005660375906154291,-0.0010882670823484306,0.0012664051083847796,0.0,1.1964430049074582e-15,9.7696985428
199,106.453,0.8205128205128205,-0.0012218004608807714,0.00011263221830033284,-0.7086945936375623,-0.7055143277297857,0.0008630386641016266,-0.0015593353263102525,0.0013800185616128161,0.0,1.196908980589733e-15,9.773503523
200,106.576,0.8421052631578947,-0.0012493454878837473,0.00011039706602238993,-0.7086943524600668,-0.7055145212483086,0.0012497086646035026,-0.0018051941446029297,0.0015399738540872788,0.0,1.1974998569703496e-15,9.778328394799999
201,106.677,0.8484848484848485,-0.001278961621059415,6.666890485169903e-05,-0.7086774752097856,-0.7055314243899389,0.0015952464756556022,-0.0010278668404789264,0.0017155853845179168,0.0,1.1979850481446771e-15,9.7822902814
202,106.764,0.8484848484848485,-0.0013044725476562707,2.90020729522027e-05,-0.7086629373803355,-0.7055459845218381,0.0018928879564627799,-0.0003582878755406006,0.0018668547226115956,0.0,1.1984029850968206e-15,9.7857029956
203,106.871,0.9310344827586207,-0.0013123148502499915,-2.6293169295937817e-05,-0.708658538188487,-0.7055503882302976,0.002219755499166992,0.0002949722330902753,0.002653259982672781,0.0,1.1989878104450842e-15,9.790478456971153
204,106.975,0.8275862068965517,-0.0013092839129836516,-8.409846519651207e-05,-0.7086603649680636,-0.7055485554681726,0.002519714127769318,0.0008528475665605678,0.00368939703408748,0.0,1.1995882945717272e-15,9.795381781971154
205,107.06,0.7096774193548387,-0.0012744136490778542,-0.00011676204626903291,-0.7086615759582866,-0.7055473951710083,0.0024087352808501296,0.0010728388027456497,0.003489545364498626,0.0,1.1997672850325534e-15,9.79684335
206,107.208,0.7380952380952381,-0.001181319425099929,-0.00015906032658889374,-0.7086634025780901,-0.7055457123751883,0.0018595193620809542,0.0012200206185217393,0.0020953299638215056,0.0,1.1997672850325534e-15,9.79684335
207,107.277,0.8260869565217391,-0.0011379173882453528,-0.00017878047079207337,-0.7086642541778633,-0.7055449278284884,0.0016034659945466602,0.0012886391677687042,0.001445324135127401,0.0,1.1997672850325534e-15,9.79684335
208,107.369,0.8260869565217391,-0.0010965091295521083,-0.00020610104320571332,-0.7086580662958141,-0.70555120080342,0.0017403005994856145,0.001082381685264431,0.0008610315155238279,0.0,1.2001035561434735e-15,9.799589211999999
209,107.481,0.8518518518518519,-0.001052397244589022,-0.00023975382753200163,-0.7086477312452307,-0.70556163779583,0.002089860294014178,0.0007173643084243333,0.00025776050053543374,0.0,1.2006415899209453e-15,9.803982591199999
210,107.579,0.7857142857142857,-0.000991240665142605,-0.00022633201032502858,-0.7086432519404411,-0.7055662198398946,5.939077586033332e-05,0.00027050571050504725,-0.00011974989785812308,0.0,1.2009682532858392e-15,9.80665
211,107.678,0.8108108108108109,-0.0008778052653418647,-0.00011461425637392179,-0.7086491772466971,-0.7055604293255151,-0.007341526450588602,-0.0004727892754598752,-0.00015683764324057493,0.0,1.2009682532858392e-15,9.80665
212,107.781,0.88,-0.0007597866170643212,1.617346221679508e-06,-0.7086553419592664,-0.7055544048509587,-0.015041470635682293,-0.0012461163820698805,-0.00019542388338595587,0.0,1.2009682532858392e-15,9.80665
213,107.879,0.84,0.0009339210123529532,0.0023676866458994324,-0.7086385820827537,-0.7055545619355373,-0.04747635908424788,-0.007173681543208535,-0.0004084438749123312,0.0,1.2013525631268906e-15,9.809788128
214,107.971,0.7619047619047619,0.002857966475315406,0.005065307173793637,-0.7086180692970924,-0.7055559533267185,-0.0832290162891138,-0.01383496525417992,-0.0006456621547695156,0.0,1.2017945194440997e-15,9.8133969752
215,108.076,0.6666666666666666,0.005612107367082757,0.00893315931566275,-0.7085669491362213,-0.7055427122629944,-0.11744849866628455,-0.020047068171202862,-0.0013235990433020028,0.0,1.2025583352531893e-15,9.819634004599997
216,108.179,0.6538461538461539,0.009895705531717362,0.014963386197811353,-0.7084382796819493,-0.7054876998811104,-0.13235468506812983,-0.022200503721833135,-0.003142567761242307,0.0,1.2040427320142508e-15,9.831755024
217,108.256,0.7,0.013098007072269102,0.019471419886407396,-0.7083420898957459,-0.7054465741198961,-0.14349814480543044,-0.023810353599488604,-0.004502379327081029,0.0,1.205152426680287e-15,9.840816368599999
218,108.38,0.7894736842105263,0.017577389736476462,0.025824207927637056,-0.7081343810658945,-0.705353800702864,-0.12729457241297076,-0.021236266657710553,-0.003840068340767368,0.0,1.2069394674411764e-15,9.855408663799999
219,108.483,0.7894736842105263,0.020999385950477935,0.030701213017937497,-0.7079385634987218,-0.7052650336715888,-0.0987768690586097,-0.016819863155484307,-0.0020322450511157933,0.0,1.2084238642022377e-15,9.867529683199999
220,108.552,0.4642857142857143,0.023242170773062128,0.03389558886612351,-0.7078094962710676,-0.7052063542492137,-0.08006053141863695,-0.013906591336253979,-0.000892545592848701,0.0,1.209403739463301e-15,9.875530971912351
221,108.681,0.48148148148148145,0.02539429430597115,0.03687568775295636,-0.7076550448570536,-0.7051289724342689,-0.061017645129645165,-0.010322826792044586,-0.001697143606110578,0.0,1.2106382008551246e-15,9.885611114143426
222,108.778,0.5185185185185185,0.027012557737693697,0.03911653730352096,-0.7075389069720972,-0.7050707861083025,-0.04669857559450954,-0.0076280581037626765,-0.002302151414532396,0.0,1.211566439266031e-15,9.893190755976097
223,108.869,0.6,0.028189371869466323,0.04069620888403003,-0.7074272925495018,-0.7050468815948772,-0.03968042953901226,-0.0059060472638285955,-0.0034580275410741393,0.0,1.2121111079262049e-15,9.897638313104839
224,108.975,0.4666666666666667,0.029433389885320238,0.042342185581905285,-0.7072962921094289,-0.705030432215692,-0.033888033365891204,-0.0041995606546651725,-0.005022922225649408,0.0,1.2126244250022062e-15,9.901829865120966
225,109.072,0.4,0.030336053829801257,0.0435018043929347,-0.7072069162992323,-0.705014657870893,-0.02545282836869885,-0.002337083995965598,-0.005697965408597446,0.0,1.2130927694365418e-15,9.905654187649402
226,109.178,0.5333333333333333,0.030538931453036173,0.043616941685609895,-0.7072106328094186,-0.7049950213763861,-0.0058158779910136675,0.0006982911437510377,-0.0039195181343675955,0.0,1.2135999512486862e-15,9.909795641434263
227,109.273,0.6428571428571429,0.03072075573801087,0.04372013076866786,-0.7072139636440198,-0.7049774226313092,0.011783275649365252,0.0034186745236858664,-0.0023256267093502143,0.0,1.2140545009859857e-15,9.913507321713148
228,109.373,0.5,0.030349292009343838,0.04306637560909806,-0.7072425977045043,-0.7050039598217468,0.01562292761355641,0.0037713050954043966,-0.002243058774620286,0.0,-0.00290276839999871,9.917425918400001
229,109.46,0.42105263157894735,0.029854066653718578,0.0422645690515275,-0.7072751903306831,-0.7050408215913526,0.014474341262132099,0.0033105631992221556,-0.002658842334058075,0.0,-0.006315482599998282,9.9208386326
230,109.566,0.3157894736842105,0.02924054415111706,0.04145031153938154,-0.7084731584429844,-0.703885204619184,0.013448105107992851,-0.0008741606939575036,0.035012835154300696,0.0,-0.009806649999998786,9.9249966522
231,109.671,0.18181818181818182,0.02858020127556209,0.041487255357532726,-0.7156664381010202,-0.6965146608208534,0.014366882786154746,-0.02380980622768396,0.27031795430183386,0.0,-0.009806649999998786,9.9291154452
232,109.765,0.2727272727272727,0.027989037177446274,0.041520328870925216,-0.7221061360805944,-0.6899162692299677,0.015189407564699596,-0.04434266984835129,0.4809720609672233,0.0,-0.009806649999998784,9.9328027456
233,109.868,0.2,0.027845766460860358,0.04134383467506011,-0.7434762359200041,-0.6651965033490594,0.010846447194945598,-0.03866849990146197,0.663404453323168,-0.0026958519920315207,-0.009806649999998784,9.936832301992032
234,110.012,0.1111111111111111,0.027993010834074815,0.04095053320160957,-0.7832136565364549,-0.6185882662637906,0.001161989458164897,-0.011327386011862547,0.8851192785924202,-0.008321977888446288,-0.009806649999998782,9.942458427888447
235,110.069,0.0,0.028711033920099254,0.040823944350262674,-0.7987597782814473,-0.5987327061612506,-0.004805675721728291,-0.004148444233462111,0.9342570092678043,-0.00980665,-0.009806649999998782,9.9446884054
236,110.165,0.0,0.03214261420800615,0.0407087394870054,-0.8243253764517553,-0.560554192283163,-0.02204547894653096,-0.004330714819952754,0.8869120919704392,-0.00980665,-0.009806649999998782,9.948454159
237,110.267,0.4,0.03578866826390671,0.04058633431979456,-0.8514888245077037,-0.5199895212877007,-0.040362769872881246,-0.004524377318099036,0.8366081173419959,-0.00980665,-0.00980664999999878,9.9524552722
238,110.373,0.5925925925925926,0.030739288355292695,0.03257446851933227,-0.8657841399986094,-0.4978903328160249,0.0648162656426544,-0.025638097915800524,0.5293372490405737,-0.012670191800000294,-0.035578526200001494,9.398222640799943
239,110.473,0.7391304347826086,0.022206431324359788,0.02165355875396743,-0.8733281689299263,-0.48559536798577596,0.21701519423723498,-0.054475173372775826,0.1307125189304279,-0.016592851800000072,-0.07088246619999958,8.637226600799986
240,110.559,0.5,0.01469333981577967,0.012371886429364981,-0.878695547941623,-0.4769263162696346,0.33004608404636365,-0.07731364789605145,-0.17507300937175746,-0.018907221199999973,-0.09453610599999887,8.0403154286
241,110.647,0.5,0.005474933111443897,0.0038400732222679188,-0.8743784315686507,-0.4847296791448857,0.2893481842279395,-0.08351203957200112,-0.16377465140819442,-0.01200333959999934,-0.060016697999995726,7.933305263799991
242,110.741,0.0,-0.004372001322731425,-0.005273454521675262,-0.8697669663520674,-0.49306508948890254,0.24587542760372044,-0.09013304886221905,-0.15170595085620847,-0.0046287387999998045,-0.023143693999998063,7.818998951399998
243,110.849,0.0,-0.01443224367975994,-0.013565293401196943,-0.8653172027545966,-0.5007106314586282,0.2019131099581696,-0.09159958875179255,-0.1366689338684072,0.0,9.544142747592703e-16,7.793383981600006
244,111.146,1.0,-0.036850487232354845,0.024120109108403395,-0.8769559815935493,-0.4714038106828214,-0.8846092075109868,0.977122440993826,0.06385670924187338,0.0,9.96496202354406e-16,8.137008997600006
245,111.243,1.0,-0.04342170683258612,0.07285694986105484,-0.8951624971568485,-0.43178730468890725,-1.9133303388952978,2.0458308753669026,0.2355429608821828,0.0,1.015601205327676e-15,8.293013185799998
246,111.345,0.0,-0.039184437713553184,0.08297103462358554,-0.9018258464549243,-0.419311814903504,-2.091385842859729,2.191087969019991,0.2867617277055957,0.01765197000000067,-0.08649465300000225,8.430580872000002
247,111.449,0.0,-0.0204674249614397,0.040157493982731454,-0.8924997624823565,-0.4442817820459538,-1.105810827314845,1.075406402423968,0.17197107936441786,0.05844763400000036,-0.28639340660000073,8.5366495984
248,111.552,0.0,-0.002285341185961022,-0.001420545685313842,-0.8834383539036085,-0.46853966781209916,-0.147472725816531,-0.008031532919499727,0.060003105413166336,0.1026952388000221,-0.4572252495998877,8.639344837199998
249,111.645,1.0,-0.002053545532942583,-0.0013975285208536307,-0.8832362528491697,-0.4689212532021308,-0.0919919725542429,-0.005217857946408943,0.037283469894901194,0.3179315929999974,0.6262526689999879,8.624752542
250,111.747,1.0,-0.0017993180425352239,-0.0013722838888650083,-0.8830145936281724,-0.4693397662105526,-0.031142114137530555,-0.002131891846889546,0.012365159971638846,0.5539972718000064,1.814583289400033,8.608748089199999
251,111.85,1.0,-0.0016662700364706354,-0.0013640381225556164,-0.8827957549265322,-0.46975187428898224,0.00048592480598017517,-0.000523972557857633,-0.0005729842465370898,0.5413270800000077,1.9456393600000288,8.841675639999986
252,111.946,1.0,-0.0016644471729035913,-0.0013733914840961144,-0.8825967222892721,-0.47012559352763567,0.0005050772982649507,-0.0005154725257307291,-0.0005545425396412608,0.2814900815999979,1.0117324671999934,9.304863332800004
253,112.048,1.0,-0.0016625103803636068,-0.0013833294307328936,-0.8823852501121834,-0.4705226702187049,0.0005254268213175247,-0.0005064412415958938,-0.0005349482260644426,0.005413270799987435,0.0194563935999561,9.797000256400022
254,112.145,1.0,-0.0017266086319885597,-0.0013968461783292114,-0.8822968768701814,-0.47068803853200264,0.0005266092834062874,-0.0004971574037335815,-0.0005411664745770393,0.0,1.2009682532858392e-15,9.80665
255,112.245,1.0,-0.001794120450882531,-0.0014108692161161158,-0.8822082171557333,-0.4708539148433982,0.0005274339695461095,-0.00048757134703919226,-0.0005481164227239792,0.0,1.2009682532858392e-15,9.80665
256,112.342,1.0,-0.0018516055050308516,-0.0014211524085942122,-0.8821590906496194,-0.47094573846718407,0.0005347617524676028,-0.000478750062175095,-0.0005426944624632592,0.0,1.2009682532858392e-15,9.80665
257,112.445,0.9090909090909091,-0.0019015201725769049,-0.0014274563070374492,-0.8821581988089943,-0.4709471894245503,0.0005516199232079082,-0.00047004667576402466,-0.0005200235941447325,0.0,1.2009682532858392e-15,9.80665
258,112.548,0.9090909090909091,-0.0019514348401229648,-0.0014337602054806868,-0.8821573069683691,-0.4709486403819166,0.000568478093948216,-0.0004613432893529531,-0.0004973527258262027,0.0,1.2009682532858392e-15,9.80665
