,time,img_sim,orientation.x,orientation.y,orientation.z,orientation.w,angular_velocity.x,angular_velocity.y,angular_velocity.z,linear_acceleration.x,linear_acceleration.y,linear_acceleration.z
0,241.426,0.99,-0.0011897099530093003,0.0003926164612855251,-0.7076455916897687,-0.7065664490934035,0.0002978594936879472,-0.0003147665655288449,-0.00023626419872195951,0.00980665,1.2009682532858392e-15,9.80665
1,241.501,0.996,-0.0011883378470056351,0.00039270546685618823,-0.7076436748557744,-0.7065683711184032,0.0002668370845656595,-0.00031277741986272567,-0.0002318151594576058,0.00980665,1.2009682532858392e-15,9.80665
2,241.588,0.996,-0.0011871574455942207,0.0003926431792482278,-0.7076414558553806,-0.7065705955005523,0.0002984984585782499,-0.00032569003757089334,-0.0002467499556951219,0.00725692100000009,1.2009682532858392e-15,9.80665
3,241.688,0.99,-0.0011859606502347235,0.0003925071855425535,-0.707638907041398,-0.7065731502515512,0.00036120812117587274,-0.0003464532690122708,-0.0002717343368567506,0.003334261000000312,1.2009682532858392e-15,9.80665
4,241.787,0.996,-0.0011849529734627056,0.0003924526778537458,-0.7076363186176577,-0.7065757443009876,0.0004128332585383907,-0.00035935591797778185,-0.00028909836509413147,0.0005469844621517749,1.2009682532858392e-15,9.80665
5,241.885,0.996,-0.0011850201684475874,0.0003928802865808536,-0.7076333650946736,-0.7065787018785988,0.0004010867276201145,-0.00032613323366017415,-0.00026198949484410803,0.004375875697210868,1.2009682532858392e-15,9.80665
6,241.991,0.99,-0.0011850928487373577,0.00039334280214282745,-0.7076301704677724,-0.7065819008911172,0.0003883812962187089,-0.0002901984934798912,-0.00023266765559407175,0.008517329482072244,1.2009682532858392e-15,9.80665
7,242.087,0.994,-0.0011851176568337977,0.00039370464109157667,-0.7076274840996739,-0.7065845909885133,0.0003913616931531565,-0.0002838699421845368,-0.0002345417485339546,0.00980665,1.2009682532858392e-15,9.80665
8,242.188,0.996,-0.0011851211537003265,0.000394053889881222,-0.7076247718257294,-0.7065873070523048,0.00040248109004460133,-0.00029165925318375136,-0.0002521808214951284,0.00980665,1.2009682532858392e-15,9.80665
9,242.292,0.996,-0.0011849079943104432,0.00039418388698527943,-0.7076217744861508,-0.706590309070251,0.00040547589422203575,-0.0003041563460137698,-0.000264757110737264,0.009100571199999973,1.2009682532858392e-15,9.80665
10,242.406,0.994,-0.001183539127151717,0.00039312379431335077,-0.7076174179217084,-0.706594674826698,0.00036447897902689694,-0.00034129887726158073,-0.0002492840210907154,0.004628738799999804,1.2009682532858392e-15,9.80665
11,242.506,0.99,-0.0011823383664861678,0.0003921938884607819,-0.7076135963739519,-0.7065985044376165,0.0003285167727153751,-0.0003738800450228153,-0.00023571113543584946,0.0007060788000000269,1.2009682532858392e-15,9.80665
12,242.598,0.994,-0.0011827957033114208,0.0003929327623700187,-0.7076103260559767,-0.7066017782473681,0.0003440146271605081,-0.00036742958310060004,-0.0002266649345401663,0.0029027684000004815,1.2009682532858392e-15,9.80665
13,242.694,0.99,-0.001183669398980677,0.00039410844707838484,-0.7076069758643501,-0.7066051310860098,0.0003725176129955761,-0.000351453273324298,-0.00021809877478517697,0.00666852199999951,1.2009682532858392e-15,9.80665
14,242.796,0.994,-0.0011849057617526555,0.0003951820811704239,-0.7076033153753516,-0.7066087940868376,0.0003925777636468425,-0.00033788204682059597,-0.00021872416231780934,0.008943664800000339,1.2009682532858392e-15,9.80665
15,242.892,1.0,-0.001187123724142175,0.00039559181281435265,-0.7075995248474557,-0.7066125859499348,0.00037646574527025304,-0.0003367578212637455,-0.000252602797932921,0.005177911200000196,1.2009682532858392e-15,9.80665
16,243.007,0.992,-0.0011897806582546204,0.0003960826371794756,-0.7075949841109137,-0.7066171282859368,0.00035716488992329617,-0.0003354110927321017,-0.0002931865801801919,0.0006668521999998386,1.2009682532858392e-15,9.80665
17,243.091,0.998,-0.0011905598852516314,0.0003954254372796007,-0.7075919002298239,-0.7066202154631197,0.00035206272857694074,-0.0003271012014358769,-0.0002936607702594408,0.0,1.2009682532858392e-15,9.80665
18,243.188,0.994,-0.0011911193911309612,0.00039436892407243785,-0.7075884073006871,-0.7066237128219007,0.00034880672606539434,-0.0003153586859185921,-0.0002856616701177553,0.0,1.2009682532858392e-15,9.80665
19,243.295,0.998,-0.0011918231416070538,0.0003931878764386742,-0.7075845247758399,-0.7066276001152273,0.0003421979607082937,-0.00030683431890792966,-0.0002785327727906405,0.0007845319999992865,1.2009682532858392e-15,9.80665
20,243.4,0.998,-0.0011928832510871195,0.0003919622465405044,-0.7075805888954771,-0.7066315401719618,0.00032283368636853993,-0.00031737411336507654,-0.00027877192769665266,0.004903325,1.2009682532858392e-15,9.80665
21,243.494,0.998,-0.0011938323014787967,0.0003908650159650003,-0.7075770653454381,-0.7066350674608481,0.00030549805029295494,-0.0003268097388790915,-0.0002789860282791778,0.008590625399999769,1.2009682532858392e-15,9.80665
22,243.593,0.998,-0.0011957596959666368,0.00038989548442176303,-0.7075737891626155,-0.706638345264694,0.0003152643642388247,-0.00034118590410798524,-0.0002800754087511447,0.00980665,1.2009682532858392e-15,9.80665
23,243.692,0.994,-0.0011981100866818727,0.00038901077542533854,-0.7075707111929227,-0.7066414237992682,0.0003378063518321145,-0.00035758556914515825,-0.0002815586221404373,0.00980665,1.2009682532858392e-15,9.80665
24,243.792,0.994,-0.0012004781037436114,0.00038828293511462624,-0.7075674746900966,-0.7066446609402758,0.00035540529945865307,-0.0003733968811575319,-0.00028094539151061364,0.00980665,1.2009682532858392e-15,9.80665
25,243.891,0.996,-0.0012027928837287654,0.00038836379722890287,-0.7075636545550802,-0.7066484820338114,0.00034783534915186574,-0.0003854055688716454,-0.0002701326536480353,0.00980665,1.2009682532858392e-15,9.80665
26,244.001,0.998,-0.001205364861490048,0.0003884536440225436,-0.7075594099606174,-0.7066527276932953,0.0003394242932554335,-0.0003987485552206635,-0.00025811850046738986,0.00980665,1.2009682532858392e-15,9.80665
27,244.095,0.998,-0.0012084265781924356,0.00038814581221978715,-0.7075563740015371,-0.7066557624604769,0.000351882227696477,-0.00038641657796688534,-0.0002565776917617766,0.007060788000000267,1.2009682532858392e-15,9.80665
28,244.191,0.994,-0.0012118559147658414,0.0003876967588626888,-0.7075534804713753,-0.7066586540373583,0.0003714841576293104,-0.0003655116532463588,-0.00025805946695618324,0.0032950344000001247,1.2009682532858392e-15,9.80665
29,244.288,1.0,-0.0012152231564736909,0.0003872816853743754,-0.7075505021613343,-0.7066616305751247,0.00038934757979586747,-0.00034610714309383145,-0.00025662041804753126,0.0,1.2009682532858392e-15,9.80665
30,244.391,0.998,-0.0012181275362606377,0.00038710617495223707,-0.7075469647360727,-0.7066651675000103,0.000394986698869615,-0.00033729112730361647,-0.0002349460313562334,0.0,1.2009682532858392e-15,9.80665
31,244.502,0.998,-0.001221257498943659,0.000386917032652651,-0.7075431525593345,-0.7066689791375085,0.0004010638077743354,-0.000327790372422896,-0.00021158819715492343,0.0,1.2009682532858392e-15,9.80665
32,244.6,0.998,-0.0012228659296407286,0.00038607076291088884,-0.7075397533333344,-0.7066723802200152,0.0004011220415122809,-0.00031276720401365507,-0.0002396279422100583,0.0,1.2009682532858392e-15,9.80665
33,244.691,0.998,-0.0012240305838840367,0.0003850915081567137,-0.7075365873638553,-0.7066755485776268,0.0003996648439206183,-0.00029692769120447397,-0.00027952192560769473,0.0,1.2009682532858392e-15,9.80665
34,244.826,1.0,-0.0012264478663698102,0.00038353797782070666,-0.7075316506213988,-0.7066804879525562,0.0004086550473002692,-0.000289123923517762,-0.00031630613293964413,0.0020005565999995185,1.2009682532858392e-15,9.80665
35,244.906,0.998,-0.001228553304848889,0.00038251899292562436,-0.7075284909208636,-0.7066836483245311,0.00042486729647498583,-0.00029981776047497994,-0.00031624180648941544,0.005138684600000009,1.2009682532858392e-15,9.80665
36,245.002,0.998,-0.0012310798310237834,0.0003812962110515258,-0.7075246992802212,-0.706687440770901,0.00044432199548464347,-0.00031265036482364,-0.000316164614749141,0.008904438200000152,1.2009682532858392e-15,9.80665
37,245.096,1.0,-0.0012341285679960694,0.0003799304299251506,-0.7075210730344963,-0.7066910666878911,0.00043916489870753165,-0.00032737041113432467,-0.00032111174496822037,0.00980665,1.2009682532858392e-15,9.80665
38,245.193,0.996,-0.0012374667661753157,0.00037846474220688565,-0.7075173599403182,-0.7066947790692233,0.00042575141298584554,-0.0003432805535849195,-0.00032789576658979097,0.00980665,1.2009682532858392e-15,9.80665
39,245.306,1.0,-0.0012406119411998236,0.0003770486626045928,-0.7075131873418276,-0.7066989517734256,0.00039934130641631495,-0.00034814881731290215,-0.0003386849818052733,0.008590625399999769,1.2009682532858392e-15,9.80665
40,245.391,0.998,-0.0012414981157151948,0.00037656321766791186,-0.7075103530192022,-0.7067017880382285,0.0003580179498530995,-0.00032461876794696263,-0.00035254346160217876,0.005256364400000571,1.2009682532858392e-15,9.80665
41,245.491,0.998,-0.0012425406739685733,0.0003759921059776987,-0.7075070185219958,-0.7067051248203495,0.00030940223624929385,-0.0002969363569281973,-0.0003688475554808987,0.001333704399999679,1.2009682532858392e-15,9.80665
42,245.602,0.996,-0.0012452554612331834,0.00037564703286151494,-0.707503197477278,-0.706708945565687,0.0003155820248648519,-0.0003189442247385152,-0.00032738577364944027,0.0030204481999999287,1.2009682532858392e-15,9.80665
43,245.702,0.992,-0.0012483208085818348,0.00037545106514526636,-0.7074997074569302,-0.7067124341883058,0.0003450744030997135,-0.00035974927351344077,-0.0002663400934543506,0.006943108199999706,1.2009682532858392e-15,9.80665
44,245.8,0.996,-0.0012515222424068404,0.0003751932020030053,-0.7074962804774401,-0.7067158594586248,0.00036557006242219335,-0.0003820617595920323,-0.0002349419868551224,0.00980665,1.2009682532858392e-15,9.80665
45,245.906,0.996,-0.0012556084587113157,0.0003747064215551513,-0.7074925523953817,-0.7067195846200481,0.00036118684883695097,-0.00035036691359709946,-0.0002907626042142511,0.00980665,1.2009682532858392e-15,9.80665
46,246.004,0.998,-0.001259386281332434,0.00037425637925430516,-0.7074891056780068,-0.7067230286372133,0.0003571344438241801,-0.0003210641314508439,-0.0003423703447915534,0.00980665,1.2009682532858392e-15,9.80665
47,246.106,0.996,-0.0012630705510631103,0.0003743397483632958,-0.7074858514281119,-0.7067262797631655,0.00037215892982203294,-0.0003019449610728789,-0.000346052753040568,0.00980665,1.2009682532858392e-15,9.80665
48,246.209,0.998,-0.0012667260799535064,0.00037456839150802786,-0.7074826524927683,-0.7067294754618596,0.0003923683671746398,-0.0002856175501365219,-0.000336672894889489,0.00980665,1.2009682532858392e-15,9.80665
49,246.306,0.994,-0.0012698406738175288,0.000374764901233798,-0.707479415333725,-0.7067327103726878,0.0004032129614077787,-0.00028230873770470233,-0.00033109396219761875,0.00980665,1.2009682532858392e-15,9.80665
50,246.401,1.0,-0.0012722071425981967,0.00037491812865289944,-0.7074757766626844,-0.7067363485097508,0.00039676171880534487,-0.0003042304843146568,-0.00033241618400072284,0.00980665,1.2009682532858392e-15,9.80665
51,246.506,0.996,-0.0012748227133557771,0.0003750874852740115,-0.7074717549736395,-0.7067403696086098,0.00038963139803423446,-0.00032845978319934123,-0.00033387758704625883,0.00980665,1.2009682532858392e-15,9.80665
52,246.607,0.992,-0.0012772391778600504,0.00037412004574299346,-0.7074683030631648,-0.7067438212079202,0.0003916856640646881,-0.00033526373844795717,-0.0003143199705462701,0.00980665,1.2009682532858392e-15,9.80665
53,246.705,0.99,-0.001279560036303803,0.00037291053466109367,-0.7074650534866505,-0.7067470705439745,0.0003958142738430258,-0.00033791197756544736,-0.00029032088486088606,0.00980665,1.2009682532858392e-15,9.80665
54,246.807,0.996,-0.0012821929102645683,0.00037227868649395806,-0.7074617946445658,-0.7067503282555994,0.00040408507408573927,-0.00034809902356937073,-0.00026901828404516206,0.00980665,1.2009682532858392e-15,9.80665
55,246.906,0.994,-0.0012852096813590036,0.0003729967097337591,-0.7074588935856821,-0.7067532263484979,0.00042054937197826805,-0.0003737630615942181,-0.0002561470565851777,0.00980665,1.2009682532858392e-15,9.80665
56,247.011,0.998,-0.0012884092870652215,0.00037375824953354787,-0.707455816705048,-0.7067563000833902,0.0004380115061067028,-0.00040098249586298807,-0.00024249575473368293,0.00980665,1.2009682532858392e-15,9.80665
57,247.098,0.996,-0.0012904059067345864,0.00037424532602789635,-0.707453086086214,-0.7067590294771643,0.0004333479091547335,-0.00039003469978470196,-0.0002474769530400446,0.00980665,1.2009682532858392e-15,9.80665
58,247.199,0.994,-0.0012925781062290437,0.00037477874141545836,-0.7074498757139353,-0.7067622387348076,0.00042367421008972976,-0.00036986644701675944,-0.00025688707030775324,0.00980665,1.2009682532858392e-15,9.80665
59,247.306,0.99,-0.001294662452358963,0.0003751232930721411,-0.7074468248092104,-0.7067652886159127,0.0004161371315088886,-0.00034219767626217807,-0.00026456528961804344,0.00980665,1.2009682532858392e-15,9.80665
60,247.409,0.99,-0.0012961329931507148,0.0003749100433842587,-0.7074447531592732,-0.7067673596689711,0.000415580655867982,-0.0002999917985534878,-0.0002662962716097106,0.00980665,1.2009682532858392e-15,9.80665
61,247.506,1.0,-0.001297517871372074,0.0003747092160082917,-0.7074428021879732,-0.7067693100781619,0.00041505659628382713,-0.0002602445156627684,-0.00026792641969895103,0.00980665,1.2009682532858392e-15,9.80665
62,247.604,0.998,-0.0013006168386740804,0.00037516843444622427,-0.7074397882976338,-0.7067723208575504,0.00042743025904888035,-0.0002844564048161985,-0.000289243744264535,0.00980665,1.2009682532858392e-15,9.80665
63,247.702,0.998,-0.0013041246215169222,0.0003757868960206777,-0.7074365236058674,-0.706775581826747,0.0004429072050478707,-0.0003241494309202,-0.0003152919175097685,0.00980665,1.2009682532858392e-15,9.80665
64,247.817,0.998,-0.0013083953436233723,0.00037658846790855567,-0.7074328478850614,-0.7067792526565638,0.00045840792586114234,-0.0003551314035300688,-0.0003281471775649886,0.00980665,1.2009682532858392e-15,9.80665
65,247.906,1.0,-0.0013119006511116311,0.0003773070745143869,-0.7074302044365492,-0.706781891642575,0.0004669558653418734,-0.0003588978614865904,-0.00031514453970218605,0.00980665,1.2009682532858392e-15,9.80665
66,248.003,0.994,-0.0013157210424190587,0.0003780902749724275,-0.7074273233746875,-0.7067847678408119,0.00047627215893323015,-0.000363002877461675,-0.0003009731254022804,0.00980665,1.2009682532858392e-15,9.80665
67,248.106,0.998,-0.0013185730801425566,0.00037873658480680147,-0.7074245789167961,-0.7067875091150907,0.0004475592306116638,-0.00039680830936412813,-0.0002956304278923201,0.00980665,1.2009682532858392e-15,9.80665
68,248.196,0.998,-0.0013207792548323143,0.00037925733674102106,-0.7074222555599289,-0.7067898301602664,0.00041330822824966454,-0.00043333541753235897,-0.0002932653586613016,0.00980665,1.2009682532858392e-15,9.80665
69,248.298,0.998,-0.0013229023950729337,0.000380023559583888,-0.7074195876057953,-0.7067924961216749,0.00038878862501587623,-0.00045641958538908666,-0.00028695544158108597,0.00980665,1.2009682532858392e-15,9.80665
70,248.413,0.996,-0.0013238354406932057,0.0003815691514202593,-0.7074164447902672,-0.7067956391193354,0.0004165144525468362,-0.0004115270054899136,-0.0002657858822494735,0.00980665,1.2009682532858392e-15,9.80665
71,248.506,1.0,-0.0013245899906295993,0.0003828190648183681,-0.707413903209014,-0.7067981808478783,0.00043893620872404295,-0.0003752225713105894,-0.0002486661516595641,0.00980665,1.2009682532858392e-15,9.80665
72,248.613,0.996,-0.0013259595148539809,0.0003845446181159225,-0.7074104047928976,-0.7068016787672339,0.0004347518850117928,-0.0003733154642395672,-0.00027099397219717316,0.00980665,1.2009682532858392e-15,9.80665
73,248.706,0.998,-0.0013272439387639352,0.00038609834654897347,-0.7074072563536361,-0.7068048266497083,0.0004254887546412664,-0.0003791384561918666,-0.00029828672436996796,0.00980665,1.2009682532858392e-15,9.80665
74,248.823,0.996,-0.00132971459192507,0.00038735596252384923,-0.7074030393866485,-0.7068090418504105,0.0004259998397901657,-0.00039150525024160776,-0.000324091990478337,0.00980665,1.2009682532858392e-15,9.80665
75,248.906,0.996,-0.0013323389369112905,0.0003875372651613896,-0.7073997867754194,-0.7068122921217566,0.00043876754003576937,-0.0004054190065944568,-0.0003336989029776305,0.00980665,1.2009682532858392e-15,9.80665
76,249.011,1.0,-0.0013356588914119306,0.00038776662391972383,-0.7073956720262741,-0.7068164039108088,0.0004549194499850258,-0.00042302074655890305,-0.00034585222601890445,0.00980665,1.2009682532858392e-15,9.80665
77,249.106,0.996,-0.001337885009527273,0.00038825003210156455,-0.7073927594269949,-0.7068193143973569,0.00044326942796552905,-0.000408468587141086,-0.0003423690161850705,0.006654512500000197,1.2009682532858392e-15,9.80665
78,249.226,0.998,-0.0013405271688091353,0.00038892088693721325,-0.7073892572550545,-0.7068228140240351,0.0004228196353540697,-0.0003834329455414592,-0.0003348080489169135,0.0019846791666663383,1.2009682532858392e-15,9.80665
79,249.296,0.994,-0.001341815126181208,0.0003890625374993714,-0.7073872640864045,-0.7068248062738824,0.0004123170346060921,-0.0003730923070172111,-0.00032819583172812597,0.0007482985943776539,1.2009682532858392e-15,9.80665
80,249.408,1.0,-0.0013427879916472884,0.00038821686238278463,-0.7073842887440654,-0.7068277825766733,0.0004016390790551329,-0.0003748578346712162,-0.0003081607641923416,0.005159321887549719,1.2009682532858392e-15,9.80665
81,249.506,0.994,-0.0013436392489301087,0.00038747689665577105,-0.7073816853195187,-0.7068303868416154,0.00039229586794804186,-0.00037640267136847093,-0.0002906300800985271,0.009018967269075976,1.2009682532858392e-15,9.80665
82,249.609,0.996,-0.001345671079111001,0.0003875042642956208,-0.7073787067571276,-0.706833363817323,0.0003997421212261541,-0.0003785675248363987,-0.0002972358423285184,0.00980665,1.2009682532858392e-15,9.80665
83,249.706,0.998,-0.0013478425984828827,0.0003877127337196211,-0.7073758467164992,-0.7068362218031957,0.00041067277197725827,-0.00038072908297181085,-0.0003091369860339883,0.00980665,1.2009682532858392e-15,9.80665
84,249.813,0.994,-0.0013503467596233775,0.0003876274535235337,-0.7073726347667373,-0.7068394314631944,0.000419060176122002,-0.0003786070287460484,-0.00030782537953928706,0.008355265800000873,1.2009682532858392e-15,9.80665
85,249.904,0.998,-0.0013526514829413654,0.0003870477047016481,-0.7073698113001041,-0.7068422529451669,0.00042028819816187005,-0.0003695514427963659,-0.0002834765815641768,0.004785645200000553,1.2009682532858392e-15,9.80665
86,250.013,1.0,-0.0013554120855969773,0.00038635328028862036,-0.7073664293455654,-0.7068456325224746,0.0004217591256601735,-0.00035870464204344955,-0.00025431153783574833,0.0005099458000002045,1.2009682532858392e-15,9.80665
87,250.106,0.99,-0.001357942931608918,0.00038645068329604294,-0.7073632322105703,-0.7068488270627356,0.0004309474874753487,-0.0003471600962802789,-0.00029611085657960763,0.0031381279999993755,1.2009682532858392e-15,9.80665
88,250.211,1.0,-0.001360832531377469,0.0003866872276473887,-0.707359565370883,-0.7068524908689582,0.0004427769582252952,-0.0003337058023316783,-0.0003555378620512796,0.007256921000000089,1.2009682532858392e-15,9.80665
89,250.306,0.998,-0.0013629652060785351,0.00038668557405078575,-0.707356282329812,-0.7068557721576434,0.000450403462164104,-0.00033270325395278665,-0.00038446584367193246,0.008629851999999955,1.2009682532858392e-15,9.80665
90,250.413,1.0,-0.0013641916930233647,0.00038615740131381924,-0.7073526689658731,-0.7068593859691032,0.0004514859392074868,-0.00035883372486569007,-0.00035643125651404247,0.004432605799999982,1.2009682532858392e-15,9.80665
91,250.506,1.0,-0.0013652577050408334,0.00038569833529010077,-0.7073495283785243,-0.7068625269454188,0.00045242678374052037,-0.00038154525565914566,-0.0003320647461805519,0.0007845320000004017,1.2009682532858392e-15,9.80665
92,250.61,0.998,-0.001367693400380649,0.000384736165369205,-0.7073459217526459,-0.7068661318297719,0.0004451411982425989,-0.0003523553166880691,-0.0003523676882705564,0.003308267469879707,1.2009682532858392e-15,9.80665
93,250.706,0.998,-0.0013702150523161745,0.0003837493698894027,-0.7073425717746461,-0.7068694797218582,0.0004365835780648149,-0.0003134134433832632,-0.0003815597475152856,0.007089144578312538,1.2009682532858392e-15,9.80665
94,250.813,1.0,-0.0013726602014537588,0.0003827568634505588,-0.7073388914629336,-0.706873158285346,0.00042882017894236234,-0.0002978353115750336,-0.0003953752155690321,0.008321977888446928,1.2009682532858392e-15,9.80665
95,250.906,0.996,-0.0013742086803545481,0.0003820636532279422,-0.7073357771498454,-0.706876271989102,0.0004248735290837004,-0.0003282104322475289,-0.0003778365792231675,0.0046884382470120415,1.2009682532858392e-15,9.80665
96,251.008,0.998,-0.0013759070120521876,0.00038130335814507246,-0.7073323614516196,-0.7068796870190279,0.00042054494536774927,-0.0003615250807270348,-0.0003586006554889964,0.0007032657370518065,1.2009682532858392e-15,9.80665
97,251.106,0.996,-0.0013774705816107288,0.0003812473708414292,-0.7073293734394807,-0.7068826739052061,0.00044581139460205514,-0.0003647461230866617,-0.0003432925371453189,0.0031381279999993755,1.2009682532858392e-15,9.80665
98,251.211,0.998,-0.0013791294030645821,0.0003813499852635622,-0.7073262428095345,-0.706885803212119,0.0004799761855974801,-0.00036125748069025575,-0.0003276560112135481,0.007256921000000089,1.2009682532858392e-15,9.80665
99,251.308,0.988,-0.0013803832241433619,0.0003815267509325418,-0.7073233504020651,-0.706888694875396,0.0004975929539650699,-0.00036005750205367755,-0.0003093279881868559,0.00980665,1.2009682532858392e-15,9.80665
100,251.414,0.992,-0.0013811349350926984,0.0003819018665656513,-0.7073201889571826,-0.7068918565681463,0.0004858903414569821,-0.0003632363663054996,-0.00028068059752695885,0.00980665,1.2009682532858392e-15,9.80665
101,251.506,0.99,-0.0013817873634638209,0.0003822274386245766,-0.7073174450616242,-0.7068946006788355,0.0004757333570159983,-0.0003659953805617986,-0.00025581682450138304,0.00980665,1.2009682532858392e-15,9.80665
102,251.597,0.988,-0.001384068472107518,0.0003824936740823357,-0.7073145421493757,-0.7068975006877944,0.00047236351168248805,-0.00036035103653557623,-0.0002770089714322231,0.007021561400000081,1.2009682532858392e-15,9.80665
103,251.706,0.992,-0.0013873527133245942,0.00038279374482360197,-0.7073110013178217,-0.7069010369903875,0.00047057989519089493,-0.00035076497821137507,-0.00031784146907738525,0.0027458620000008474,1.2009682532858392e-15,9.80665
104,251.809,0.994,-0.001389797870976173,0.0003828993916987127,-0.7073077660879334,-0.7069042692390448,0.00045799544348162756,-0.0003486444718231816,-0.000337611803415179,0.0012690958823524652,1.2009682532858392e-15,9.80665
105,251.906,0.994,-0.0013907855423651602,0.00038264349069158074,-0.7073049404445206,-0.7069070946686933,0.00042437168703341534,-0.0003605069188565452,-0.0003186457444612379,0.004999468627450894,1.2009682532858392e-15,9.80665
106,251.999,0.994,-0.0013917324850370755,0.00038239814230329967,-0.7073022313224856,-0.706909803585779,0.0003921344772428679,-0.00037188019281636574,-0.00030046179103117434,0.008576011568627017,1.2009682532858392e-15,9.80665
107,252.106,0.994,-0.001393481989143404,0.00038181354736105085,-0.7072992852856612,-0.7069127481077281,0.0004057054620530718,-0.00037606590016440924,-0.0003117859798331467,0.00980665,1.2009682532858392e-15,9.80665
108,252.194,0.996,-0.0013951524337372503,0.00038122667654442516,-0.7072969223497874,-0.7069151093488919,0.00043464380219026877,-0.0003763854255358099,-0.0003324143918782272,0.00980665,1.2009682532858392e-15,9.80665
109,252.306,0.996,-0.0013970096683912504,0.00038051140208656477,-0.7072936969081616,-0.7069183332414569,0.00045735054861204336,-0.00038146504365098527,-0.0003461639175236401,0.00980665,1.2009682532858392e-15,9.80665
110,252.406,0.996,-0.0013980119484236953,0.00037995001021806526,-0.7072902848581081,-0.7069217453918466,0.00044315546504633313,-0.00039740463886615683,-0.000327922571656186,0.00980665,1.2009682532858392e-15,9.80665
111,252.51,0.998,-0.0013990543196574377,0.0003793661626748258,-0.7072867363260524,-0.7069252940282519,0.0004283925781379958,-0.00041398181788993385,-0.0003089515719540354,0.00980665,1.2009682532858392e-15,9.80665
112,252.6,0.99,-0.0013994982982638098,0.00037904448097184204,-0.7072833496156431,-0.7069286817261924,0.00041433293949831406,-0.00041176614549152073,-0.0003340814673792582,0.00980665,1.2009682532858392e-15,9.80665
113,252.706,0.992,-0.0013999133046606036,0.00037870885257441364,-0.7072792864195425,-0.7069327462967324,0.0003974713412701626,-0.0004052554676494763,-0.00037346555157081465,0.00980665,1.2009682532858392e-15,9.80665
114,252.803,0.996,-0.001400925336332142,0.0003782888257301736,-0.7072756461820033,-0.7069363865325218,0.00039298029465134864,-0.00039871931856032576,-0.0003870412793476195,0.00980665,1.2009682532858392e-15,9.80665
115,252.902,1.0,-0.0014036312294248552,0.00037756141241456376,-0.7072721372009553,-0.7069398921791087,0.00041734152194111956,-0.00039051828742958807,-0.00034145497041755506,0.00980665,1.2009682532858392e-15,9.80665
116,253.006,0.99,-0.0014064737837848776,0.0003767972610527108,-0.7072684509986421,-0.7069435748785535,0.00044293311424553145,-0.00038190306280739693,-0.0002935663226526277,0.00980665,1.2009682532858392e-15,9.80665
117,253.102,0.99,-0.001409877008660132,0.0003759112500459431,-0.7072656688701582,-0.7069463519503122,0.000461020940553815,-0.0004023879584828265,-0.0003023544235489726,0.00980665,1.2009682532858392e-15,9.80665
118,253.198,0.998,-0.0014134853199940514,0.0003749777020605165,-0.7072630500363598,-0.7069489652475672,0.00047765214002717395,-0.00043035638329281254,-0.0003250880524783534,0.00980665,1.2009682532858392e-15,9.80665
119,253.293,0.994,-0.0014168146165954246,0.00037420801079465093,-0.7072604800228554,-0.7069515301591952,0.0004879860917571931,-0.0004469251157715915,-0.0003431531265377998,0.00980665,1.2009682532858392e-15,9.80665
120,253.395,0.988,-0.0014192803545028585,0.00037408953220795205,-0.7072578195763372,-0.7069541868594382,0.000470954040065407,-0.0004136942245531813,-0.0003421943786088376,0.00980665,1.2009682532858392e-15,9.80665
121,253.492,1.0,-0.0014216252229050253,0.00037397686139511093,-0.707255289543864,-0.7069567133292771,0.00045475689286832025,-0.00038209229859058325,-0.00034128262812737383,0.00980665,1.2009682532858392e-15,9.80665
122,253.605,0.99,-0.0014243960168203536,0.0003737153716957432,-0.7072522518010224,-0.7069597468926576,0.0004837704933502551,-0.00038152616062902617,-0.0003463663610692803,0.00980665,1.2009682532858392e-15,9.80665
123,253.702,0.994,-0.0014267883462267953,0.00037344479214555673,-0.7072496121762221,-0.706962382919448,0.0005256308071534158,-0.00039387551281022226,-0.00035290648433494774,0.00980665,1.2009682532858392e-15,9.80665
124,253.803,0.996,-0.0014296920915131803,0.0003732794111858162,-0.7072466765868695,-0.7069653139130655,0.0005500414243433661,-0.0004047601452330121,-0.0003564866314409307,0.00980665,1.2009682532858392e-15,9.80665
125,253.906,0.988,-0.0014338070149268415,0.0003734359732945425,-0.7072431598808772,-0.7069688235583641,0.0005213385471142841,-0.00041034303954802433,-0.00035111069795675594,0.00980665,1.2009682532858392e-15,9.80665
126,254.026,1.0,-0.0014386011004573205,0.0003736183757513109,-0.7072390627476823,-0.7069729124655081,0.0004878983017988503,-0.00041684738243930047,-0.00034484747448004777,0.00980665,1.2009682532858392e-15,9.80665
127,254.106,1.0,-0.0014398717818056349,0.00037325549371350835,-0.707237460548251,-0.7069745128590146,0.00044257934438065596,-0.0003838129795622147,-0.00035417009727097855,0.00980665,1.2009682532858392e-15,9.80665
128,254.214,0.992,-0.0014415872016258597,0.0003727656029624748,-0.7072352975790186,-0.7069766733902484,0.00038139875186607913,-0.0003392165356781383,-0.00036675563803873813,0.00980665,1.2009682532858392e-15,9.80665
129,254.306,0.996,-0.001443200532612312,0.0003725000447842033,-0.7072329857633275,-0.7069789828874322,0.0003645687503740198,-0.0003288873576093471,-0.000376337057678029,0.00980665,1.2009682532858392e-15,9.80665
130,254.401,0.992,-0.0014451909502604218,0.0003725496835541176,-0.7072295970780769,-0.7069823686627841,0.0004224940203130245,-0.00037725022411905235,-0.00038379894976969803,0.00980665,1.2009682532858392e-15,9.80665
131,254.501,0.992,-0.0014472861267321162,0.00037260193489086955,-0.707226030040971,-0.7069859326368386,0.00048346798866986886,-0.00042815850465558185,-0.00039165357302408613,0.00980665,1.2009682532858392e-15,9.80665
132,254.608,0.992,-0.0014489855126577351,0.00037255379286563076,-0.707222655480462,-0.7069893048638746,0.00045880908006241396,-0.00043249094915336956,-0.00036208309669395614,0.00980665,1.2009682532858392e-15,9.80665
133,254.706,0.988,-0.0014503904882327853,0.00037248064559460855,-0.7072196882302086,-0.7069922702405231,0.0004111208450834703,-0.00042245834778310045,-0.00032439596315633344,0.00980665,1.2009682532858392e-15,9.80665
134,254.811,0.996,-0.0014526060630193315,0.0003725635553464684,-0.707216585502685,-0.7069953693629215,0.00038602952965984205,-0.00041259364844151435,-0.00029993674263777397,0.00980665,1.2009682532858392e-15,9.80665
135,254.896,0.994,-0.0014555016288425326,0.0003728809156008723,-0.707214192419483,-0.7069977570487307,0.00040606378155121764,-0.00040598034388404435,-0.00030483746012038165,0.00980665,1.2009682532858392e-15,9.80665
136,255.021,0.996,-0.001459759813876653,0.0003733476218573488,-0.70721067317948,-0.7070012683513911,0.00043552591668560067,-0.0003962548960054097,-0.0003120443975948065,0.00980665,1.2009682532858392e-15,9.80665
137,255.106,0.994,-0.0014621746921039884,0.00037311069277127644,-0.7072074833166171,-0.7070044542461894,0.00044240313153101656,-0.0004015362968082085,-0.0003520142521469838,0.00980665,1.2009682532858392e-15,9.80665
138,255.207,0.994,-0.0014650084375217758,0.0003727880011341578,-0.7072036338363726,-0.7070082991175879,0.0004495977774490621,-0.0004086952004396168,-0.0004021122431766569,0.00980665,1.2009682532858392e-15,9.80665
139,255.306,0.986,-0.0014676478228521637,0.0003725067688899268,-0.7072001135681394,-0.7070118150379294,0.0004656703762011697,-0.0004122361739864561,-0.0004195455111330227,0.00980665,1.2009682532858392e-15,9.80665
140,255.404,0.998,-0.0014699302204056474,0.0003723121727401267,-0.7071972333426368,-0.707014691364917,0.0005031341220019422,-0.00040743538097012745,-0.00036112361552658844,0.00980665,1.2009682532858392e-15,9.80665
141,255.503,1.0,-0.0014722359077300852,0.0003721155909153286,-0.7071943237270781,-0.7070175970421799,0.0005409801509231325,-0.0004025856002699585,-0.00030210557812824894,0.00980665,1.2009682532858392e-15,9.80665
142,255.607,0.998,-0.0014742962840131567,0.0003719453114900309,-0.7071910856620284,-0.7070208316840854,0.000521365874446924,-0.0003981860948260869,-0.0003229641891084666,0.00980665,1.2009682532858392e-15,9.80665
143,255.706,0.992,-0.0014761542934661255,0.0003717935652486645,-0.707187951441197,-0.7070239628502646,0.0004857393986312665,-0.0003941966410493478,-0.0003664821314159789,0.00980665,1.2009682532858392e-15,9.80665
144,255.801,0.996,-0.0014781664876074077,0.0003718621715086656,-0.7071850281386818,-0.7070268825904914,0.0004681895098183307,-0.00039138862537220124,-0.0003940676199272273,0.00980665,1.2009682532858392e-15,9.80665
145,255.901,0.998,-0.0014809984972381385,0.00037260148139406677,-0.7071822134387669,-0.7070296915754972,0.0005015245599206616,-0.00039160990761592996,-0.000378966166172173,0.00980665,1.2009682532858392e-15,9.80665
146,256.0,0.998,-0.001483802186772561,0.00037333339818061364,-0.7071794268858511,-0.7070324724706528,0.0005345262595219582,-0.0003918289770372213,-0.00036401572695467417,0.00980665,1.2009682532858392e-15,9.80665
147,256.091,0.992,-0.0014857091447419498,0.00037416668569550135,-0.7071775575389051,-0.7070343377579624,0.0005350670656189294,-0.00039813098357990596,-0.0003569886346813281,0.00980665,1.2009682532858392e-15,9.80665
148,256.196,0.994,-0.001487583255894366,0.00037520630684881534,-0.7071757374656746,-0.7070361537023779,0.0005211879401467688,-0.0004083721919450948,-0.00035214928351342493,0.00980665,1.2009682532858392e-15,9.80665
149,256.298,0.996,-0.0014894277730202728,0.00037633917892177047,-0.7071737853945318,-0.7070381016713548,0.0005062306609470367,-0.00041322156193200285,-0.0003486697291955353,0.00980665,1.2009682532858392e-15,9.80665
150,256.402,0.996,-0.0014914026549554,0.0003779778158565351,-0.7071710714172132,-0.7070408111069427,0.0004851804405916482,-0.00039811189344618475,-0.0003499259473755955,0.00980665,1.2009682532858392e-15,9.80665
151,256.499,0.998,-0.0014932446121448946,0.0003795061599206914,-0.7071685401114449,-0.7070433381766736,0.0004655470619909391,-0.00038401922187767393,-0.0003510976124089215,0.00980665,1.2009682532858392e-15,9.80665
152,256.598,0.988,-0.001495981889313996,0.00037977365151696757,-0.7071660069408383,-0.7070458658454541,0.00045362332058439313,-0.00040950617744051564,-0.00035298082131644647,0.00980665,1.2009682532858392e-15,9.80665
153,256.706,0.994,-0.001499336853316098,0.0003795094623943582,-0.7071632651335737,-0.7070486011437374,0.00044410658207901936,-0.00045446299249777297,-0.00035533095656466114,0.00980665,1.2009682532858392e-15,9.80665
154,256.804,0.988,-0.001502449490740662,0.00037922042956671433,-0.7071604581820882,-0.7070514020895317,0.00045425866649808516,-0.0004790622499341015,-0.0003549588953870245,0.00980665,1.2009682532858392e-15,9.80665
155,256.906,0.996,-0.0015058583595855594,0.0003787974977070715,-0.7071567466437624,-0.7070551071308958,0.0005113513125904502,-0.0004645601284608556,-0.00034836921537113093,0.00980665,1.2009682532858392e-15,9.80665
156,256.995,0.994,-0.0015088327647541455,0.00037842846892757943,-0.707153508144635,-0.7070583399611056,0.0005611674449651444,-0.0004519063165871452,-0.0003426193965337355,0.00980665,1.2009682532858392e-15,9.80665
157,257.106,0.994,-0.0015107867920722984,0.0003790647216896561,-0.7071501689143654,-0.7070616751130385,0.0005063695716671722,-0.0004423961168121686,-0.000370318484812623,0.00980665,1.2009682532858392e-15,9.80665
158,257.195,0.996,-0.0015118080654609165,0.0003799155515395198,-0.7071477089391024,-0.7070641327478576,0.00042610318632796526,-0.0004367193716635699,-0.00040336177532238255,0.00980665,1.2009682532858392e-15,9.80665
159,257.28,0.988,-0.0015128005430822145,0.0003807056184751549,-0.7071453413188322,-0.7070664981081409,0.00035311366859043806,-0.0004316222986375232,-0.000432791450409691,0.00980665,1.2009682532858392e-15,9.80665
160,257.408,0.998,-0.0015149991182690967,0.00038096828673952137,-0.7071410266006397,-0.7070708084050971,0.00039423499613503484,-0.0004373049247310506,-0.00038949737327165543,0.00980665,1.2009682532858392e-15,9.80665
161,257.506,0.998,-0.0015166824023965522,0.00038116939212942685,-0.7071377231445236,-0.7070741084762041,0.0004257185125363422,-0.00044165568533390415,-0.0003563503454628728,0.00980665,1.2009682532858392e-15,9.80665
162,257.602,0.996,-0.0015184810175222516,0.0003814857524153274,-0.7071342961005855,-0.7070775317624872,0.0004507369414648802,-0.00041597634172872456,-0.00033934779014498675,0.006892223895583696,1.2009682532858392e-15,9.80665
163,257.706,0.99,-0.0015204777261926203,0.00038186691828705877,-0.7071305219521818,-0.7070813016978299,0.0004759649533393234,-0.00037851379204813734,-0.00032591016684475275,0.0027962736947782897,1.2009682532858392e-15,9.80665
164,257.798,1.0,-0.0015225059697901201,0.00038228174139809536,-0.7071273657756488,-0.7070844535096128,0.0004928218185961007,-0.0003560672664181886,-0.0003271909505759697,0.0008204766932275694,1.2009682532858392e-15,9.80665
165,257.906,0.996,-0.001525926514663169,0.00038307684821069964,-0.7071243850041931,-0.7070874266257937,0.0004909389960279027,-0.0003721585920019324,-0.0003809571860773699,0.005040071115537928,1.2009682532858392e-15,9.80665
166,258.026,0.994,-0.001529727120077668,0.0003839603002247044,-0.7071210730359088,-0.7070907300882169,0.0004888469709521272,-0.00039003784265053657,-0.0004406974477455923,0.009728509362549438,1.2009682532858392e-15,9.80665
167,258.102,0.99,-0.0015319588538736822,0.00038415740669031943,-0.7071186428858367,-0.7070931553695106,0.0004822997269220689,-0.00039683677535503714,-0.00044012577994726685,0.00980665,1.2009682532858392e-15,9.80665
168,258.204,0.994,-0.001534947716278939,0.0003844087984615213,-0.707115369305279,-0.7070964224344543,0.0004733232073485862,-0.0004057975376490493,-0.00043796539399772904,0.00980665,1.2009682532858392e-15,9.80665
169,258.293,1.0,-0.0015373787916280782,0.0003844959835668267,-0.7071125317274102,-0.7070992547693856,0.00046838179114274536,-0.0004134900856297453,-0.00043456863320898425,0.00980665,1.2009682532858392e-15,9.80665
170,258.411,0.998,-0.0015394452467781081,0.0003837470992408926,-0.7071088923929003,-0.7071028900452972,0.00048074001562781437,-0.0004228640275541679,-0.00042017718043644203,0.00980665,1.2009682532858392e-15,9.80665
171,258.506,0.996,-0.0015411089182971996,0.00038314418389374244,-0.7071059624202017,-0.7071058167504803,0.000490689433645452,-0.00043041084520518405,-0.00040859084133990694,0.00980665,1.2009682532858392e-15,9.80665
172,258.618,1.0,-0.001544084461172973,0.00038389523377965935,-0.7071027858999362,-0.7071089863413594,0.0004906295088585472,-0.00044240084826014655,-0.00039675538428128013,0.00980665,1.2009682532858392e-15,9.80665
173,258.705,0.996,-0.0015465883903637003,0.0003847562170874433,-0.7071003711663398,-0.7071113951080139,0.0004883443083381289,-0.00045230175659525737,-0.0003879081562627143,0.00980665,1.2009682532858392e-15,9.80665
174,258.797,0.992,-0.001549108116090583,0.00038552239095475415,-0.7070977269176532,-0.7071140333871114,0.00047972800955176163,-0.0004609916256740691,-0.00037838162481784753,0.00980665,1.2009682532858392e-15,9.80665
175,258.904,0.996,-0.0015514662140232896,0.00038576871395154316,-0.7070942460786317,-0.7071175088037976,0.00044200301007368505,-0.0004631440734956409,-0.0003665384408086564,0.00980665,1.2009682532858392e-15,9.80665
176,259.012,0.998,-0.0015538463502544333,0.00038601733903241445,-0.7070907327084045,-0.7071210167010135,0.0004039254405070165,-0.0004653166376519945,-0.00035458457283675884,0.00980665,1.2009682532858392e-15,9.80665
177,259.106,0.996,-0.0015557191846453308,0.00038592594275957393,-0.7070871616625792,-0.7071245834821581,0.00043411932652815007,-0.0004709211459849013,-0.0003716235044412253,0.00980665,1.2009682532858392e-15,9.80665
178,259.211,0.986,-0.0015577656368205989,0.00038575332596590386,-0.7070830551576317,-0.7071286853376729,0.00048235875961836095,-0.00047803240153007165,-0.00039694449002854345,0.00980665,1.2009682532858392e-15,9.80665
179,259.302,0.988,-0.001559417998471912,0.0003855958843485484,-0.7070796154662259,-0.7071321212543029,0.0005101486159288191,-0.00048290962709087994,-0.0004192406552346557,0.00980665,1.2009682532858392e-15,9.80665
180,259.399,1.0,-0.0015608185582860219,0.0003854047310427136,-0.7070763039260217,-0.7071354295288607,0.0004980579853211854,-0.00048428204476896414,-0.0004440523049538096,0.00980665,1.2009682532858392e-15,9.80665
181,259.506,0.996,-0.0015623635057098338,0.00038519387121050406,-0.7070726509899202,-0.7071390788626513,0.0004847208979498792,-0.0004857959488056137,-0.0004714218567058642,0.00980665,1.2009682532858392e-15,9.80665
182,259.603,0.992,-0.0015644160881450138,0.00038533253624112,-0.7070696513487238,-0.7071420735837539,0.0004934254009276648,-0.0004817697466351085,-0.00045327459322288226,0.00980665,1.2009682532858392e-15,9.80665
183,259.706,0.994,-0.0015668108255245418,0.0003855886304877634,-0.7070665691006811,-0.7071451500613396,0.0005095314740901846,-0.0004757127609336737,-0.00041982682119122953,0.00980665,1.2009682532858392e-15,9.80665
184,259.806,0.998,-0.001569663751369252,0.00038569515161530004,-0.7070635239135307,-0.707148188516923,0.0005261390217501325,-0.0004628474679663379,-0.00039729488177606424,0.00980665,1.2009682532858392e-15,9.80665
185,259.934,0.998,-0.001575142553333427,0.0003853396787295776,-0.7070594436468346,-0.7071522562594079,0.0005507556203543331,-0.0004222075729331621,-0.00040285938828959225,0.00980665,1.2009682532858392e-15,9.80665
186,260.005,1.0,-0.001578181576297928,0.0003851425023632786,-0.7070571803739016,-0.7071545125853176,0.0005644101398925901,-0.0003996651311569646,-0.0004059459504963124,0.00980665,1.2009682532858392e-15,9.80665
187,260.106,0.998,-0.0015807233356840813,0.0003850337029966134,-0.7070543293779858,-0.7071573575558601,0.0005434191184196369,-0.0004073069725404515,-0.0003769154729047095,0.00980665,1.2009682532858392e-15,9.80665
188,260.211,0.998,-0.0015828196837816791,0.00038497322658746276,-0.7070514784624172,-0.7071602033897934,0.0005092075384691311,-0.00042742432978197357,-0.0003364900019450215,0.00980665,1.2009682532858392e-15,9.80665
189,260.306,0.992,-0.0015844754152856745,0.00038484647890782984,-0.707048704281433,-0.7071629735002046,0.00048389849377729696,-0.0004389105306472638,-0.00032165222052883284,0.00980665,1.2009682532858392e-15,9.80665
190,260.402,0.994,-0.001585535314114303,0.00038453507622290394,-0.7070454051747348,-0.7071662698349593,0.0004726879200288333,-0.00043342721376878605,-0.0003619811932800189,0.00980665,1.2009682532858392e-15,9.80665
191,260.504,1.0,-0.001586661456619721,0.00038420421087017004,-0.7070418998738679,-0.7071697721906361,0.0004607766854210873,-0.00042760118958540185,-0.0004048307268281659,0.00980665,1.2009682532858392e-15,9.80665
192,260.599,1.0,-0.0015879543997230914,0.0003846210527919075,-0.7070386070499677,-0.7071730612625494,0.00047462356169782836,-0.0004219889890537756,-0.00041833521437741045,0.00980665,1.2009682532858392e-15,9.80665
193,260.706,0.998,-0.0015895198200420128,0.0003854147786768401,-0.7070348857313629,-0.7071767779040302,0.0005013733258942232,-0.0004155846965600606,-0.00042173712826033567,0.00980665,1.2009682532858392e-15,9.80665
194,260.814,0.996,-0.0015916541970974868,0.00038596678268221023,-0.7070310486380429,-0.7071806091095614,0.0005190957154878281,-0.00041276574959473974,-0.00041500500874570856,0.00980665,1.2009682532858392e-15,9.80665
195,260.896,0.992,-0.0015941525731337117,0.0003859913594501443,-0.7070280070242592,-0.707183644405002,0.0005178599765865624,-0.0004163979670029162,-0.0003937950025709543,0.00980665,1.2009682532858392e-15,9.80665
196,260.999,0.996,-0.0015972907771792141,0.000386022230268403,-0.7070241864606038,-0.707187457032202,0.0005163077679666799,-0.0004209603864302606,-0.0003671531655465636,0.00980665,1.2009682532858392e-15,9.80665
197,261.096,0.994,-0.0015999378616288274,0.000386642664195011,-0.7070208328790281,-0.7071908034930832,0.0005288123479113044,-0.00045272061880679366,-0.00036511167418211974,0.00980665,1.2009682532858392e-15,9.80665
198,261.195,0.996,-0.0016024917262827056,0.00038755937825920374,-0.7070175273242367,-0.7071941019497953,0.0005482699722051661,-0.0004983012343291287,-0.00037407706258818686,0.00980665,1.2009682532858392e-15,9.80665
199,261.306,1.0,-0.0016049701499000013,0.0003886661794044429,-0.7070134651402334,-0.7071981568783934,0.0005525606148506632,-0.0005403025443517865,-0.0003873237846640978,0.00980665,1.2009682532858392e-15,9.80665
200,261.393,1.0,-0.0016059261846709178,0.00038973602313375073,-0.7070093691755334,-0.707202248957892,0.0005110167816931789,-0.0005498940872568041,-0.0004058921490685028,0.00980665,1.2009682532858392e-15,9.80665
201,261.506,0.99,-0.001607167930982568,0.0003911255902764152,-0.7070040491294286,-0.7072075639577005,0.0004570575501208076,-0.0005623520682713686,-0.0004300096798466409,0.00980665,1.2009682532858392e-15,9.80665
202,261.607,0.998,-0.0016088677058753195,0.0003918879329651988,-0.7070001939847966,-0.7072114136784451,0.0004551493503611543,-0.0005239735524340702,-0.0004416667603260516,0.00980665,1.2009682532858392e-15,9.80665
203,261.711,0.988,-0.0016108285403901162,0.0003925016983604572,-0.7069965455771214,-0.707215056175048,0.0004697193324964005,-0.00046678054962782093,-0.0004501364012192514,0.00980665,1.2009682532858392e-15,9.80665
204,261.81,0.99,-0.0016128196410736826,0.00039294140943632935,-0.7069930342897681,-0.7072185615880591,0.0004817352001555287,-0.00042081895284353904,-0.00045407072408124634,0.00980665,1.2009682532858392e-15,9.80665
205,261.906,0.984,-0.0016150281607527576,0.00039304541373226445,-0.7069895440203788,-0.7072220456092144,0.0004892527838237609,-0.0003951669875532301,-0.0004486788581125419,0.00980665,1.2009682532858392e-15,9.80665
206,262.005,0.998,-0.0016173056966718035,0.00039315266816244743,-0.706985944680071,-0.7072256385060309,0.0004970052919816243,-0.00036871339834760274,-0.0004431184963323163,0.00980665,1.2009682532858392e-15,9.80665
207,262.106,1.0,-0.0016183972831366963,0.0003939880855860162,-0.7069819825653467,-0.7072295962746757,0.0004941128850914524,-0.00039843444153667547,-0.00045434153778478863,0.00980665,1.2009682532858392e-15,9.80665
208,262.209,0.994,-0.0016190972103284791,0.00039508358948160465,-0.7069778446888778,-0.7072337304662719,0.0004875397083815168,-0.0004477677043760342,-0.0004714546804316392,0.00980665,1.2009682532858392e-15,9.80665
209,262.297,0.996,-0.0016199600158353642,0.0003958998349455874,-0.7069744362026843,-0.7072371352935795,0.00048767995508389135,-0.00048024462920147456,-0.00047867232467977767,0.00980665,1.2009682532858392e-15,9.80665
210,262.407,0.992,-0.0016224209838680143,0.0003962951380194769,-0.7069708374971729,-0.7072407267596154,0.0005179058290086713,-0.0004703478704905129,-0.0004490448348224137,0.00980665,1.2009682532858392e-15,9.80665
211,262.506,1.0,-0.0016246358550974,0.00039665091078597747,-0.7069675986622127,-0.7072439590790476,0.0005451091155409811,-0.00046144078765064493,-0.00042238009395077845,0.00980665,1.2009682532858392e-15,9.80665
212,262.607,0.998,-0.0016268382786593632,0.00039771452977054646,-0.7069631274005278,-0.7072484228658953,0.0005561977223907111,-0.0004777148521194981,-0.00044699589974093795,0.00980665,1.2009682532858392e-15,9.80665
213,262.705,1.0,-0.0016289579869456852,0.0003989584565502221,-0.706958436013798,-0.7072531067494963,0.0005619171942170298,-0.0005011754886557671,-0.00048655224478958976,0.00980665,1.2009682532858392e-15,9.80665
214,262.797,0.998,-0.001631060935109637,0.0003999223339196165,-0.7069542543332674,-0.7072572813141015,0.0005627175574246916,-0.0005161593582604479,-0.0005140221068994545,0.00980665,1.2009682532858392e-15,9.80665
215,262.906,0.998,-0.0016342398335043387,0.0003998242799046842,-0.7069506530389775,-0.7072608737386245,0.0005358780694968341,-0.0004910930811640701,-0.00048778854435810667,0.00980665,1.2009682532858392e-15,9.80665
216,263.024,0.998,-0.0016376812097481444,0.0003997181296866841,-0.7069467543901133,-0.7072647627853557,0.0005068224770611679,-0.0004639571114634006,-0.00045938890784545097,0.00980665,1.2009682532858392e-15,9.80665
217,263.106,1.0,-0.0016403660786659762,0.0003998496895085316,-0.7069440611734851,-0.7072674484579965,0.0005134054285008448,-0.0004578894702717669,-0.00044582159607671376,0.00980665,1.2009682532858392e-15,9.80665
218,263.198,1.0,-0.001643409094561001,0.00040001879393411,-0.7069410411927112,-0.7072704598835439,0.0005235948434565187,-0.00045242113713175224,-0.0004312456219922793,0.00980665,1.2009682532858392e-15,9.80665
219,263.306,0.994,-0.0016467200920185167,0.00040040916706543506,-0.7069374248296264,-0.7072740666410859,0.0005325367033947262,-0.00045925874146631785,-0.0004229884245432868,0.00980665,1.2009682532858392e-15,9.80665
220,263.416,0.996,-0.0016492090307787233,0.000401455537797383,-0.70693350084269,-0.707277982324164,0.0005314333399292083,-0.0005110511055681813,-0.0004445170355029386,0.00980665,1.2009682532858392e-15,9.80665
221,263.506,1.0,-0.0016512454352188917,0.00040231165930534006,-0.706930290307924,-0.707281186064864,0.0005305305880028758,-0.0005534266761969616,-0.0004621313535608284,0.00980665,1.2009682532858392e-15,9.80665
222,263.626,0.998,-0.0016533824390518861,0.0004025952442165974,-0.706926216009634,-0.707285253150985,0.0005080574291059817,-0.0004900522285606947,-0.0004559682589024339,0.00980665,1.2009682532858392e-15,9.80665
223,263.706,1.0,-0.0016547056693112109,0.0004026337902218765,-0.7069235360238847,-0.707287928652584,0.0004893438337603557,-0.0004267718584742308,-0.00044665797613561016,0.00980665,1.2009682532858392e-15,9.80665
224,263.812,1.0,-0.0016568262763645583,0.0004023206249131372,-0.7069201576720562,-0.7072913004730241,0.0004892521734582294,-0.0003758439449593441,-0.0004413124804850674,0.00980665,1.2009682532858392e-15,9.80665
225,263.901,0.994,-0.001659352953880222,0.0004013177895972256,-0.7069176718010307,-0.7072937796618795,0.0005393572652246829,-0.00039995270548388493,-0.00045102466130629223,0.00980665,1.2009682532858392e-15,9.80665
226,264.013,1.0,-0.0016625325930010564,0.0004000557945929327,-0.7069145435138975,-0.7072968995399894,0.000602410863852112,-0.00043029181985183764,-0.0004632467315532235,0.00980665,1.2009682532858392e-15,9.80665
227,264.106,0.998,-0.0016641682953507269,0.00039944631676254124,-0.7069114979486579,-0.707299939927216,0.0005808464949950624,-0.00045425061834975796,-0.00046465949853882196,0.00980665,1.2009682532858392e-15,9.80665
228,264.208,0.996,-0.0016656978722812956,0.0003988932629641474,-0.7069080397341196,-0.7073033929376285,0.0005377372382208616,-0.00048020332073793356,-0.0004639094662852583,0.00980665,1.2009682532858392e-15,9.80665
229,264.306,0.998,-0.0016671367015891633,0.00039833410746908026,-0.7069045380554484,-0.7073068895757589,0.0005081300632954224,-0.0005043169563462433,-0.000465735164609558,0.00980665,1.2009682532858392e-15,9.80665
230,264.412,0.998,-0.0016685958216628622,0.00039764153534331586,-0.7069001849238022,-0.7073112371274823,0.0005134111039325697,-0.0005278050414903667,-0.0004757521057312921,0.00980665,1.2009682532858392e-15,9.80665
231,264.506,1.0,-0.0016698897583319917,0.0003970273676091474,-0.7068963245995122,-0.707315092503539,0.0005180942909126814,-0.000548634098127608,-0.00048463505351849023,0.00980665,1.2009682532858392e-15,9.80665
232,264.606,0.996,-0.0016724135190363909,0.000397302064728405,-0.7068929211021036,-0.7073184878419786,0.0005055254440512468,-0.0005312317500225207,-0.00048716116350166675,0.00980665,1.2009682532858392e-15,9.80665
233,264.703,0.994,-0.0016752731561635048,0.0003979014808795535,-0.706889872005622,-0.7073215279856685,0.00048703695492511667,-0.0005001583152578413,-0.0004871274460099577,0.00980665,1.2009682532858392e-15,9.80665
234,264.815,0.994,-0.0016789277250223032,0.0003982616214844215,-0.7068860885790635,-0.7073253002179323,0.0004698979215876414,-0.00047768212403115075,-0.00048121493829199124,0.00980665,1.2009682532858392e-15,9.80665
235,264.906,1.0,-0.0016825545215621302,0.00039793545571071475,-0.706882524655654,-0.7073288534484603,0.0004638169781514528,-0.00048440192391042253,-0.0004654628525217195,0.00980665,1.2009682532858392e-15,9.80665
236,265.018,0.994,-0.0016870182711496077,0.0003975340209123066,-0.7068781382883808,-0.707333226655264,0.00045633274007614674,-0.0004926724468387537,-0.00044607567003523876,0.00980665,1.2009682532858392e-15,9.80665
237,265.099,0.998,-0.001689676737974342,0.00039808223346998457,-0.7068756818993148,-0.7073356747892661,0.0004679629103047787,-0.0004897574128117409,-0.0004590697370003925,0.00980665,1.2009682532858392e-15,9.80665
238,265.214,0.992,-0.0016932820705791837,0.0003991093240574485,-0.7068724068140457,-0.707338938529004,0.0004895309028215738,-0.00048297953698784023,-0.00048553254967555773,0.00980665,1.2009682532858392e-15,9.80665
239,265.306,0.994,-0.0016956492295693295,0.0003997084926851997,-0.7068695718962136,-0.7073417655689257,0.0005061061658966442,-0.0004783931884016445,-0.000499767388664407,0.00980665,1.2009682532858392e-15,9.80665
240,265.411,0.994,-0.0016966787114560873,0.0003996728167379553,-0.7068656416338941,-0.707345690715783,0.0005228274829479541,-0.0004758619834032102,-0.0004935866634070638,0.00980665,1.2009682532858392e-15,9.80665
241,265.502,0.992,-0.0016975709290912772,0.0003996418975836768,-0.7068622354065505,-0.707349092509726,0.0005373192910590882,-0.00047366827240456733,-0.00048823003485070027,0.00980665,1.2009682532858392e-15,9.80665
242,265.608,0.99,-0.0016993769448560502,0.0003990849898653878,-0.7068577843700089,-0.7073535364077702,0.0005594454240053844,-0.00047762949764728414,-0.0004993781270459256,0.00980665,1.2009682532858392e-15,9.80665
243,265.706,0.992,-0.0017013671024291418,0.00039835241264323413,-0.7068534672535483,-0.7073578460993474,0.0005820939783006888,-0.00048401526734232863,-0.0005169518170878276,0.00980665,1.2009682532858392e-15,9.80665
244,265.811,0.99,-0.0017038716292882695,0.00039756204320685635,-0.7068489449288472,-0.7073623596101402,0.0005969293231732806,-0.00048292036731973525,-0.0005268052673751655,0.00980665,1.2009682532858392e-15,9.80665
245,265.897,0.996,-0.0017068492673640774,0.0003969010918872006,-0.7068454976512387,-0.7073657975317991,0.0005856098603411985,-0.0004622717265431853,-0.0005125388736847946,0.00980665,1.2009682532858392e-15,9.80665
246,266.008,0.994,-0.0017106924979037822,0.00039604800355601716,-0.7068410482580464,-0.707370234849289,0.0005709998559881656,-0.0004356205739129936,-0.0004941252725262972,0.00980665,1.2009682532858392e-15,9.80665
247,266.106,1.0,-0.001713380677157484,0.00039665752970026474,-0.7068374699101955,-0.7073738036413252,0.0005423952176038954,-0.0004412169636420138,-0.0004953006094607314,0.00980665,1.2009682532858392e-15,9.80665
248,266.214,0.994,-0.0017160912005729282,0.0003978163079291016,-0.7068336515017608,-0.7073776119140299,0.0005052582230010798,-0.0004577946733679626,-0.0005028265399906585,0.00980665,1.2009682532858392e-15,9.80665
249,266.309,0.996,-0.0017184412887589282,0.0003987314128734018,-0.7068303748239362,-0.7073808798543547,0.0004869484082921007,-0.00046900332714599336,-0.0005013499122363551,0.00980665,1.2009682532858392e-15,9.80665
250,266.409,0.996,-0.0017208196152696937,0.00039940362213959293,-0.7068271550581573,-0.7073840909205388,0.0005077814794824366,-0.00047137770880327875,-0.0004771773693578176,0.00980665,1.2009682532858392e-15,9.80665
251,266.506,1.0,-0.0017231265919851362,0.00040005566512779845,-0.7068240318853518,-0.7073872056547373,0.0005279895585370651,-0.0004736808590108459,-0.0004537300027656331,0.00980665,1.2009682532858392e-15,9.80665
252,266.606,0.996,-0.0017252339856483937,0.0004017045111031214,-0.7068213062757864,-0.7073899230044662,0.0005396064658430351,-0.0004787665851640543,-0.0004653784947792645,0.00980665,1.2009682532858392e-15,9.80665
253,266.706,0.994,-0.0017272461866895533,0.00040369649970597706,-0.7068187542886744,-0.7073924668862516,0.0005479852615139528,-0.00048480494586988413,-0.0004896127558090711,0.00980665,1.2009682532858392e-15,9.80665
254,266.809,0.99,-0.0017296695464858829,0.0004052001457629482,-0.7068158035036134,-0.7073954084883232,0.0005511777987703668,-0.0004887751247733829,-0.0005053750681690859,0.00980665,1.2009682532858392e-15,9.80665
255,266.906,0.992,-0.0017329301081966415,0.0004050875318698308,-0.7068121258792476,-0.7073990751371847,0.0005390187166631234,-0.00048624059371650254,-0.0004945630428846936,0.00980665,1.2009682532858392e-15,9.80665
256,267.026,0.998,-0.0017369637927872716,0.0004049482157133969,-0.7068075762408569,-0.7074036111976321,0.0005239765532314783,-0.000483105091378093,-0.0004811873415019368,0.00980665,1.2009682532858392e-15,9.80665
257,267.106,0.998,-0.0017378863783897,0.0004050142702650766,-0.7068045541343755,-0.7074066284191344,0.0005199291359167555,-0.00048087060800753597,-0.0004827924852725111,0.00980665,1.2009682532858392e-15,9.80665
258,267.199,0.998,-0.0017387619636242437,0.00040510877524391035,-0.7068010421602042,-0.7074101351790218,0.0005158906965516509,-0.00047825695248320714,-0.00048583141062408664,0.00980665,1.2009682532858392e-15,9.80665
259,267.306,0.998,-0.0017395913189318314,0.0004053510244592535,-0.7067972727222098,-0.7074138991974754,0.0005096817880272374,-0.0004782307075792857,-0.00048525931279037003,0.00980665,1.2009682532858392e-15,9.80665
260,267.412,1.0,-0.0017397687727391364,0.0004060740821653399,-0.7067945197994763,-0.7074166488486568,0.0004978776009646772,-0.0004889895979606762,-0.00046997257516753353,0.00980665,1.2009682532858392e-15,9.80665
261,267.506,0.994,-0.0017399261374361806,0.000406715284282058,-0.7067920785283729,-0.7074190872185724,0.00048740973696580317,-0.0004985305007517205,-0.00045641641161520694,0.00980665,1.2009682532858392e-15,9.80665
262,267.606,0.996,-0.0017414671041717214,0.00040731198925129556,-0.7067891301156377,-0.7074220288547979,0.0004781589701047366,-0.0005189116890837891,-0.0004636813186123862,0.00980665,1.2009682532858392e-15,9.80665
263,267.706,0.992,-0.001743490672185202,0.00040787868005166437,-0.7067860582676154,-0.7074250926297747,0.0004695705914248998,-0.0005428876555968323,-0.0004785657566528631,0.00980665,1.2009682532858392e-15,9.80665
264,267.816,0.988,-0.0017458752337653077,0.0004085743036868218,-0.7067822715704092,-0.7074288696040953,0.00047843511053360135,-0.0005508274026215138,-0.0004875379935838296,0.00980665,1.2009682532858392e-15,9.80665
265,267.906,0.984,-0.0017481426108797865,0.0004092875672173945,-0.7067783603511153,-0.7074327711880165,0.0005222073262557456,-0.0005205606645904434,-0.0004801196740008878,0.00980665,1.2009682532858392e-15,9.80665
266,268.014,0.986,-0.0017508634634171602,0.0004101434834540815,-0.7067736668879626,-0.707437453088722,0.0005747339851223021,-0.0004842405789531707,-0.00047121769050136053,0.00980665,1.2009682532858392e-15,9.80665
267,268.096,0.996,-0.0017534467298123857,0.00041074085803452195,-0.7067709629861677,-0.7074401476888964,0.0005811142157763237,-0.00048392819985747465,-0.00045791559806093344,0.00980665,1.2009682532858392e-15,9.80665
268,268.225,0.982,-0.0017577732333774788,0.000411653994050658,-0.7067671455392036,-0.7074439502375538,0.0005741504454053922,-0.0004972725480329277,-0.0004336686395108641,0.00980665,1.2009682532858392e-15,9.80665
269,268.306,0.99,-0.0017602384345192183,0.0004120704477382964,-0.7067646066837491,-0.7074464802952795,0.0005711177410188293,-0.000499189324078285,-0.00042727786450764873,0.00980665,1.2009682532858392e-15,9.80665
270,268.41,0.992,-0.0017625378399604406,0.00041206485932333896,-0.7067608584701459,-0.7074502191310394,0.0005718375905416908,-0.0004793988191522604,-0.0004494909371715099,0.00980665,1.2009682532858392e-15,9.80665
271,268.506,0.992,-0.0017646603680600286,0.0004120597007864551,-0.7067573985806662,-0.7074536703640485,0.0005725020670243315,-0.00046113066075902445,-0.00046999531193813143,0.00980665,1.2009682532858392e-15,9.80665
272,268.61,0.998,-0.0017676249846807787,0.0004114875595952248,-0.7067536808303468,-0.7074573773499359,0.0005720694119396107,-0.00047011851030777726,-0.000479692003160205,0.00980665,1.2009682532858392e-15,9.80665
273,268.697,0.982,-0.001770330598373989,0.00041081680235312355,-0.7067505811204475,-0.70746046758473,0.000571316622118766,-0.0004873970031058582,-0.00048355888758387986,0.00980665,1.2009682532858392e-15,9.80665
274,268.812,0.982,-0.0017738706120160779,0.0004101048532256912,-0.7067463745304475,-0.7074646614921655,0.0005664520841091842,-0.0005079611237160886,-0.0004870385606773194,0.00980665,1.2009682532858392e-15,9.80665
275,268.906,0.994,-0.0017766718118444544,0.00040996656618208006,-0.7067426585758236,-0.7074683666788902,0.0005526483580470064,-0.0005189914456568676,-0.0004857386369258163,0.00980665,1.2009682532858392e-15,9.80665
276,269.012,0.992,-0.0017798306116509214,0.0004098106254733271,-0.7067384682440138,-0.7074725448681756,0.0005370824541896569,-0.0005314298938028525,-0.00048427276546135527,0.00980665,1.2009682532858392e-15,9.80665
277,269.106,1.0,-0.00040704104292657323,0.00027526882838400495,-0.7067436088669019,-0.7074662687684702,-0.014227987803519332,0.02194326659338634,-0.0005828937944024866,0.00980665,1.2009682532858392e-15,9.80665
278,269.226,0.816,0.001882034238213728,5.108644165640149e-05,-0.7067536260575618,-0.7074543633166928,-0.0388310538008824,0.05940539667988423,-0.0007477692384272986,0.00980665,1.2009682532858392e-15,9.80665
279,269.306,0.722,0.0035579357327675627,-0.00019582399966974181,-0.7067579554719264,-0.7074439333973825,-0.049180428983562834,0.07612142524871292,-0.0006679506945532316,0.00894710298804826,1.2130736305002279e-15,9.90549790637445
280,269.426,0.68,0.006664381780057283,-0.0009515819328036276,-0.7067551615021767,-0.7074184300285586,-0.040768937805142236,0.06853596539611505,0.00020209480628012458,0.00425866474103675,1.2791029607605586e-15,10.444668304780773
281,269.506,0.624,0.008735345811583273,-0.0014554205548927652,-0.7067532988556767,-0.707401427782676,-0.03516127701952984,0.063478992161051,0.0007821251401688913,0.0011330392430298174,1.3231225142674354e-15,10.80411523705157
282,269.614,0.608,0.008955375741872792,-0.0017274509696776684,-0.7067470439367031,-0.7074071004452115,-0.011321442186845984,0.02633054879309942,0.0006591971169693572,0.0,-0.0061978027999948174,10.856942215000048
283,269.706,0.596,0.008337351730924073,-0.0018315494521271999,-0.7067405460470221,-0.7074208841142426,0.014074118793008579,-0.014796118706461317,0.00027117952494885487,0.0,-0.013415497199998076,10.766721035000007
284,269.814,0.598,0.006945010411327414,-0.001723080275635345,-0.7067365618393097,-0.7074361810455942,0.035049842734543986,-0.04982058537541004,-0.00011072292117905489,0.0,-0.017442362213739435,10.624120366412221
285,269.906,0.542,0.004211510254846113,-0.0010953925394022418,-0.70674162343156,-0.7074471606259695,0.03241250774190454,-0.04889797161951794,-0.0002652620685638347,0.0,-0.010555249236641391,10.417506977099281
286,270.014,0.57,0.0010026187668021854,-0.000358541718606708,-0.7067475653007235,-0.7074600496985838,0.029316505794022816,-0.04781490329738352,-0.0004466775894068745,0.0,-0.0024703774809159383,10.174960824427517
287,270.106,0.58,-0.0011391026085711621,0.00011049660386893407,-0.7067560922707369,-0.7074533175727435,0.025287333123076468,-0.04118056930601802,-0.0004195162347362905,0.0,1.2263687318428381e-15,10.01406064750003
288,270.215,0.576,-0.0032844198321117734,0.0005610720479652256,-0.7067684912957866,-0.7074336043618857,0.019591303355992733,-0.029535311460496816,-0.0002669275505468452,0.0,1.2067329009016142e-15,9.853721920000027
289,270.306,0.602,-0.00488946182414144,0.0008749806106114373,-0.706777082907346,-0.7074185804842248,0.015462781951959333,-0.021057593554584746,-0.00010343773784003367,0.0,1.1919442448169261e-15,9.73296337888446
290,270.417,0.624,-0.00598749553299021,0.0009700944446230727,-0.7067794281029329,-0.707406882794874,0.013324534453719204,-0.016468985035897676,0.0002628464146935801,0.0,1.1813221351663527e-15,9.646227271314759
291,270.506,0.61,-0.006867900939184334,0.0010463568881098851,-0.70678130848498,-0.7073975035664755,0.011610083756931946,-0.012789830457851011,0.0005565337081664996,0.0,1.1728053085095858e-15,9.576682103984092
292,270.614,0.624,-0.007602453619811786,0.0010704934326598505,-0.7068045927551263,-0.7073668996654512,0.009601090572835518,-0.009227549672369923,0.002118384516683827,0.0,1.1667748319605802e-15,9.52743952601627
293,270.706,0.618,-0.008108456551973522,0.0010665184759995367,-0.7068319605492143,-0.7073339351040702,0.007915358263544564,-0.00651665020552293,0.0038812199732428734,0.0,1.1631816911702598e-15,9.498099304878043
294,270.815,0.61,-0.00856054917359826,0.0010466493683001898,-0.7068490894507359,-0.7073117983241497,0.005785907354795767,-0.0036293014209620687,0.004690793433330499,0.0,1.1599870059177388e-15,9.472012720119523
295,270.906,0.646,-0.008628329894412099,0.0009982167149747935,-0.7068312586516836,-0.7073288576983395,0.0037303550838608296,-0.0019003674768253175,0.0026799739863486503,0.0,1.1595515951167469e-15,9.468457321115539
296,271.011,0.68,-0.008706538418428071,0.0009423328842147159,-0.7068106846527772,-0.7073485415916355,0.0013585640020126275,9.45563048710997e-05,0.00035979770136940117,0.0,1.1590491980386791e-15,9.464354937649404
297,271.106,0.722,-0.008531365187189617,0.0009024302916176152,-0.7068075284905289,-0.7073538172235602,-0.0017737673346938953,0.002416193155029468,0.0002269879497393403,0.0,1.1602932288986559e-15,9.474513220517926
298,271.218,0.728,-0.008226836453196246,0.0008596350197384683,-0.7068099679863064,-0.7073550420560558,-0.005859728715201068,0.005359197076247057,0.0008540558471044415,0.0,1.162436789765079e-15,9.492016723306774
299,271.306,0.726,-0.007925003617455963,0.0008079962443925713,-0.7068120533701316,-0.7073564149910129,-0.008302167877554929,0.007425322402268394,0.0008641581889245295,0.0,1.1643147021955548e-15,9.507351041999996
300,271.417,0.742,-0.007275984452391923,0.0006656058234297154,-0.7068154070208409,-0.707359907531955,-0.008089474648237283,0.008975445820018255,-0.0011927686752746256,0.0,1.167514081622308e-15,9.533475957599993
301,271.508,0.744,-0.006743905677429416,0.0005488713341718573,-0.7068181564101611,-0.7073627707862409,-0.007915104523301164,0.010246267721056659,-0.0028790780864652275,0.0,1.1701369962874846e-15,9.554893681199996
302,271.62,0.764,-0.005940356844022549,0.0003958465789033446,-0.7068325853940546,-0.7073552255136942,-0.008422140076756499,0.010669844619929791,-0.0017364253979175667,0.0,1.1733651989523176e-15,9.581253956400001
303,271.706,0.806,-0.0052852904546802975,0.00027595187919136335,-0.7068464918171926,-0.7073465986142606,-0.008996177688241111,0.010703174509108073,-3.534834366260417e-05,0.0,1.1758439974270998e-15,9.601494882000004
304,271.812,0.782,-0.004516621999550563,0.00014383043869631965,-0.7068545695089979,-0.7073443102394297,-0.009274907744085044,0.01043286545209542,0.0008401687250495055,0.0,1.1786474688173995e-15,9.624386963147412
305,271.9,0.776,-0.003977437971172649,7.413617407453426e-05,-0.7068381253017938,-0.7073637265861611,-0.00841095616885166,0.009413034788730052,-0.001552348844688098,0.0,1.1803316952124453e-15,9.638139715338644
306,271.999,0.768,-0.003370855939246973,-4.269873625041852e-06,-0.706819625568689,-0.707385569976234,-0.0074390106467132665,0.008265725292443026,-0.00424393111064522,0.0,1.1822264499068733e-15,9.653611561553792
307,272.101,0.778,-0.0027676750762111743,-8.368111863512942e-05,-0.7068082444075782,-0.7073994875311891,-0.00691518111221758,0.008290444418458925,-0.004952629751349951,0.0,1.184497142502823e-15,9.672153173694783
308,272.226,0.74,-0.002044332505437128,-0.00018000142015458452,-0.7067998845375496,-0.7074102946081653,-0.00662072889327284,0.00919884392789691,-0.004318969700126387,0.0,1.187511621050227e-15,9.696768259036146
309,272.306,0.786,-0.0016072789198714732,-0.00023190183350700386,-0.7067974737115602,-0.707414023301929,-0.006399680114540511,0.009170003227919601,-0.0040556690692752865,0.0,1.1891499601160543e-15,9.710146312749002
310,272.426,0.802,-0.0010681840103063613,-0.0002659018452455108,-0.7068070851813057,-0.7074052710828194,-0.005921409832706966,0.00638076844087161,-0.004300806231692849,0.0,1.1902982962944949e-15,9.719523189243027
311,272.506,0.778,-0.000708787403929705,-0.0002885685197378435,-0.7068134928278028,-0.7073994362700795,-0.005602562978151345,0.004521278582840057,-0.004464231006637852,0.0,1.1910638537467885e-15,9.725774440239043
312,272.614,0.784,-0.0003470735391384965,-0.00030694776580252346,-0.7068112331543038,-0.7074019756610282,-0.0043404829420943605,0.0036256906256663356,-0.0029719418918072458,0.0,1.1921032747736328e-15,9.734261957028112
313,272.706,0.8,-8.129189571683322e-05,-0.00031841300855965345,-0.7068055666275566,-0.7074077111810471,-0.0029801651115439736,0.0034165571370801118,-0.0011132835568556211,0.0,1.1929907372579889e-15,9.741508638152613
314,272.804,0.796,0.00018528514454630219,-0.0003379997432079089,-0.7068021506044198,-0.7074111632323203,-0.001791912245564171,0.0031025315206499944,0.0006022164858876125,0.0,1.193935383194597e-15,9.749222257599998
315,272.906,0.818,0.00038623969497535745,-0.0003924958404550568,-0.7068107151558333,-0.7074024628735006,-0.001761494735255836,0.002353565869852867,0.001164777106605495,0.0,1.1949153732892786e-15,9.757224484
316,273.015,0.8,0.000600985243963163,-0.0004507318659446272,-0.706819867470579,-0.7073931654312327,-0.0017289897487498865,0.0015532006155700596,0.0017659448287448947,0.0,1.1959626176061437e-15,9.7657758828
317,273.101,0.818,0.0007163665228004695,-0.00047310394972230525,-0.70681225509834,-0.7074006521033607,-0.0017942767473869,0.001320027883630249,0.0015222829766571647,0.0,1.1964766320185502e-15,9.769973129
318,273.218,0.8,0.0008495814324897912,-0.0004931780880128845,-0.7067953789063153,-0.7074173523638128,-0.0019230657164007606,0.0011778748249634903,0.000875213295221238,0.0,1.197038685161088e-15,9.774562641200001
319,273.305,0.836,0.0009287818769924796,-0.0005063444147362415,-0.7067848725576581,-0.7074277523715102,-0.001934098179982691,0.0009786042614850657,0.00031276956289643315,0.0,1.1974562584734416e-15,9.777972386055778
320,273.413,0.832,0.0009388792768926045,-0.0005148667866977262,-0.7067809051859066,-0.7074316964940951,-0.001571336156313803,0.0003155314871869342,-0.0007465913283280853,0.0,1.19797300975374e-15,9.782191980478089
321,273.499,0.872,0.0009469197990352976,-0.0005216531199263166,-0.706777745982475,-0.7074348371843016,-0.0012824701004292864,-0.00021247090716163615,-0.0015901564824514058,0.0,1.1983844968843478e-15,9.785552027888448
322,273.612,0.812,0.0008657819450887861,-0.0005067241319331266,-0.7067727722128951,-0.7074399088003636,-0.00042459077667400666,-0.0012747400440280697,-0.0016010337742043326,0.0,1.1989266072552535e-15,9.789978695000002
323,273.706,0.816,0.0007596363394458712,-0.0004842548728278022,-0.706768287983651,-0.7074445259164609,0.0004906444018710531,-0.0023137104548518264,-0.0011475015720350619,0.0,1.199378171318489e-15,9.793665995400001
324,273.807,0.852,0.0006273136186077576,-0.0004621254145172686,-0.7067656146536253,-0.7074473404744053,0.001480661639944108,-0.003312263991683921,-0.0008838506136092017,0.0,1.1997672850325534e-15,9.79684335
325,273.906,0.844,0.00042507232686917374,-0.00044842554735117644,-0.7067715088159079,-0.7074415785713448,0.0024773794701325753,-0.0038234530817718767,-0.0015132862040774823,0.0,1.1997672850325534e-15,9.79684335
326,274.017,0.802,0.00019831693916227326,-0.0004330650902255577,-0.7067781174221036,-0.7074351182557923,0.0035949115827681464,-0.004396604485809897,-0.002219017017632838,0.0,1.1997672850325534e-15,9.79684335
327,274.106,0.804,-7.373836527183785e-06,-0.00039498384209568584,-0.7067792749511319,-0.707433973103428,0.0031012154734097732,-0.0044583015884441,-0.0032664934532291847,0.0,1.1997672850325534e-15,9.79684335
328,274.218,0.838,-0.0002749303915484939,-0.0003376632189348041,-0.706779221043703,-0.7074340037304871,0.0019730131018410816,-0.004390820094111202,-0.004760342522947249,0.0,1.1997672850325534e-15,9.79684335
329,274.315,0.838,-0.0004893449023383971,-0.00028929814020445645,-0.7067820481236061,-0.7074311210907871,0.0015737531832845948,-0.004208073133150069,-0.005052636568833428,0.0,1.1997672850325534e-15,9.79684335
330,274.424,0.868,-0.0006846783881469077,-0.0002383189461552538,-0.7067927970624359,-0.7074202164500177,0.0026476666353552883,-0.003675190724462202,-0.0027422660046196156,0.0,1.1997672850325534e-15,9.79684335
331,274.506,0.848,-0.0008316265150854353,-0.0001999676258613544,-0.7068008834200876,-0.7074120129587967,0.0034555648286562594,-0.0032743067105868856,-0.0010041890664035432,0.0,1.1997672850325534e-15,9.79684335
332,274.62,0.846,-0.0010205047256136171,-0.0001282154530568281,-0.7068149469324614,-0.7073977170357306,0.003659016976132956,-0.0035014164522291454,0.00038408716791333094,0.0,1.2001660064926444e-15,9.8000991578
333,274.706,0.85,-0.0011586483392231318,-6.889254639889608e-05,-0.706826351231574,-0.7073861178083038,0.0035533584337681047,-0.0038937665373088735,0.001141714391997433,0.0,1.2005791395717748e-15,9.803472645400001
334,274.822,0.844,-0.0013349006466573299,3.452419341569927e-06,-0.7068350633013166,-0.7073771246336161,0.0035311779177996717,-0.004228018593428955,0.0013536366817735158,0.0,1.2008007875931498e-15,9.80528253884462
335,274.906,0.842,-0.0014456373648984873,4.2982976022212246e-05,-0.7068301932483791,-0.7073817606633396,0.003716782128727796,-0.004143329847425922,0.00014966026605256044,0.0,1.2003988699306956e-15,9.802000632071712
336,275.009,0.868,-0.001581421674170389,9.14549681425259e-05,-0.7068242216358487,-0.7073874453188338,0.003944368244508721,-0.004039485313636485,-0.001326644148462488,0.0,1.1999060423207816e-15,9.797976389243027
337,275.106,0.858,-0.001667887636185434,0.000113282406246745,-0.7068215707392386,-0.7073898968892576,0.003549670979228674,-0.0035214827319950525,-0.0013702805334589057,0.0,1.2001006149967306e-15,9.799565195714285
338,275.224,0.876,-0.0017515902912400637,0.0001274770843853829,-0.7068198882521857,-0.707391373687634,0.0027535615773987255,-0.0026733320491504264,-0.0007247127031870782,0.0,1.200679040522803e-15,9.804288398571426
339,275.306,0.87,-0.0017990592959608708,0.00012840320352786895,-0.7068183760158386,-0.707392768914998,0.002272584674624366,-0.002025909831761418,-0.0004212914504950559,0.0,1.2009682532858392e-15,9.80665
340,275.409,0.882,-0.0018242167199142832,0.00010076687081199556,-0.7068153711349467,-0.7073957103629154,0.0019012374228196004,-0.0010257042567795578,-0.0005080025040489605,0.0,1.2009682532858392e-15,9.80665
341,275.506,0.844,-0.001847908662860694,7.47404215553068e-05,-0.7068125412956603,-0.707398480464352,0.0015515220497608448,-8.376308422409834e-05,-0.0005896624282696042,0.0,1.2009682532858392e-15,9.80665
342,275.602,0.904,-0.001881988370797019,4.857486049500769e-05,-0.7068102777111616,-0.707400653215374,0.0019872139580544754,-0.00014748217188732444,-0.0004859813200310596,0.0,1.2009682532858392e-15,9.80665
343,275.706,0.86,-0.0019246670607996176,2.0008147084878316e-05,-0.7068081164135974,-0.7074026989329526,0.0028826895914972374,-0.0007559838437009976,-0.00027372306492178325,0.0,1.2009682532858392e-15,9.80665
344,275.804,0.904,-0.001958105544799619,-4.121221179017103e-06,-0.7068060108712448,-0.7074047135543358,0.003339901538566335,-0.0012820690385996216,-0.000192787177394874,0.0,1.2009682532858392e-15,9.80665
345,275.906,0.886,-0.001956753907233778,-1.4357006985050943e-05,-0.7068034516762629,-0.7074072740842667,0.001753571091685522,-0.0015772636085748528,-0.0007437247680499878,0.0,1.2009682532858392e-15,9.80665
346,275.993,0.928,-0.0019556010398982084,-2.3087530172546538e-05,-0.7068012688334842,-0.7074094580656783,0.0004005245340524856,-0.0018290472123771444,-0.0012136421247850241,0.0,1.2009682532858392e-15,9.80665
347,276.106,0.872,-0.0019484857392047634,-4.25749627790217e-05,-0.7068049935051138,-0.7074057547720639,0.0001379169717740535,-0.0011992466015122041,-0.0009991386206821627,0.0,1.2009682532858392e-15,9.80665
348,276.21,0.89,-0.0019385155192007356,-6.547277239800435e-05,-0.7068124168541858,-0.7073983632180358,0.0008066432507177273,-3.6842410690376276e-05,-0.00029933454112771453,0.0,1.2009682532858392e-15,9.80665
349,276.306,0.886,-0.0019233758659318962,-8.892334132521722e-05,-0.7068184116076184,-0.7073924118375603,0.0012297095781538584,0.0008839003389655935,0.00030365789806504316,0.0,1.2009682532858392e-15,9.80665
350,276.408,0.882,-0.0018670196830015218,-0.0001295378227938502,-0.7068189635833345,-0.7073920010774388,0.00036169990648242736,0.0008294071502438309,0.0006527721417388867,0.0,1.2009682532858392e-15,9.80665
351,276.506,0.892,-0.001812873546460615,-0.0001685595794989776,-0.7068194939129441,-0.7073916064255575,-0.00047227017022086096,0.0007770509493151186,0.0009881956307585984,0.0,1.2009682532858392e-15,9.80665
352,276.618,0.866,-0.0017612914897264347,-0.00019561797244603272,-0.7068155041209979,-0.7073957165666366,-0.0011636068176012887,0.0004367467332631035,0.0008565317315514891,0.0,1.2009682532858392e-15,9.80665
353,276.706,0.916,-0.0017241430427152387,-0.00021112202815562052,-0.7068108608708134,-0.7074004429843231,-0.0016208837672603946,7.731232978391324e-05,0.000584051845362317,0.0,1.2009682532858392e-15,9.80665
354,276.799,0.876,-0.00168799372747854,-0.0002257685984176407,-0.7068066502543526,-0.7074047348095177,-0.0019080712366850495,-0.00026407862547784823,0.0002977540111169486,0.0,1.2009682532858392e-15,9.80665
355,276.902,0.894,-0.0016765445004252135,-0.00022600989454692083,-0.7068083890250668,-0.7074030245353826,-0.00042376053240150875,-0.0002885819245129823,-4.033514531327884e-06,0.0,1.2009682532858392e-15,9.80665
356,277.003,0.888,-0.0016653175884603023,-0.00022624650531446734,-0.7068100940332429,-0.7074013474704541,0.0010317286048084299,-0.0003126094313338396,-0.00029996108822524147,0.0,1.2009682532858392e-15,9.80665
357,277.106,0.914,-0.0016430612404311022,-0.00022710648894383993,-0.7068067973036776,-0.7074046925641664,0.0010921230564126248,-0.00038620504154824437,-0.0011059259553440675,0.0,1.2009682532858392e-15,9.80665
358,277.209,0.88,-0.0016149980811312836,-0.00022829890167773984,-0.706800794932171,-0.7074107539749309,0.0003874281782190157,-0.00048617861000822566,-0.0021827920805664535,0.0,1.2009682532858392e-15,9.80665
359,277.303,0.93,-0.0015888722741800386,-0.0002285277092688382,-0.7067964912268131,-0.7074151135797908,-0.00026714330120019826,-0.0005500044738873744,-0.0029550192169844644,0.0,1.2009682532858392e-15,9.80665
360,277.426,0.876,-0.001550837349939301,-0.00022240109489301342,-0.7067996394185239,-0.7074120536297539,-0.0012092850982444395,-0.00042855506739579126,-0.0023912070943042617,0.0,1.2009682532858392e-15,9.80665
361,277.506,0.926,-0.0015260991878315075,-0.00021841630505507907,-0.7068016870228886,-0.7074100634183479,-0.0018220602507934653,-0.00034956358349883616,-0.0020245000226423856,0.0,1.2009682532858392e-15,9.80665
362,277.606,0.898,-0.0015229215405562506,-0.00019618713875391164,-0.7068034293640268,-0.70740833551994,-0.0020621463600546106,-0.0006775011518039202,-0.0010923381820320236,0.0,1.2009682532858392e-15,9.80665
363,277.697,0.888,-0.0015324654638110798,-0.00016822780912906623,-0.7068046486340976,-0.7074071037110673,-0.0020449193250387876,-0.0011671647569165464,-3.1719364225684266e-05,0.0,1.2009682532858392e-15,9.80665
364,277.807,0.834,-0.0015421859445193511,-0.00013942342766767694,-0.7068051728641948,-0.7074065661409401,-0.002016019984148424,-0.0016312991939484572,0.0010110360779799045,0.0,1.2009682532858392e-15,9.80665
365,277.905,0.884,-0.0015425761978104656,-0.0001364953702958096,-0.7068013158098899,-0.7074104195831882,-0.001953501440584669,-0.001463010943494762,0.0008503240952268483,0.0,1.2009682532858392e-15,9.80665
366,278.012,0.886,-0.00154300229068954,-0.00013329840969591135,-0.7067971045363122,-0.7074146269129896,-0.0018852413981221533,-0.0012792676496319246,0.000674852848751449,0.0,1.2009682532858392e-15,9.80665
367,278.119,0.914,-0.0015372427483440992,-0.00013558425822776088,-0.7067974214999906,-0.7074143222750937,-0.0015193673334866294,-0.0006811431209953284,-0.0007232789048147961,0.0,1.2009682532858392e-15,9.80665
368,278.205,0.904,-0.0015309356576515875,-0.000138908758309888,-0.7067989045931001,-0.7074128535019959,-0.0011445690479521711,-8.800176770565934e-05,-0.002178671914392863,0.0,1.2009682532858392e-15,9.80665
369,278.306,0.906,-0.0015219101350801617,-0.00014475317737792264,-0.7068011882628309,-0.707410590019768,-0.0007782097441615475,0.0005736763151474053,-0.0035650983273265565,0.0,1.2009682532858392e-15,9.80665
370,278.411,0.912,-0.001502881111927773,-0.00016239261027927874,-0.7068067922991799,-0.7074050270558573,-0.0008372826163701854,0.0010534334220889505,-0.0030823321508086903,0.0,1.2009682532858392e-15,9.80665
371,278.504,0.928,-0.0014860268342785142,-0.00017801610799190873,-0.7068117558742317,-0.7074000998592507,-0.0008896043031835514,0.0014783611453800408,-0.0026547392516071446,0.0,1.2009682532858392e-15,9.80665
372,278.608,0.87,-0.0014771564159249447,-0.00017943533811460945,-0.7068131598230628,-0.7073987156044986,1.9908581899186944e-05,0.0007707209649137144,-0.0018885460556058936,0.0,1.2009682532858392e-15,9.80665
373,278.701,0.934,-0.0014739476672262857,-0.00017310508052279164,-0.7068124521545249,-0.707399430948409,0.0012915009206934933,-0.0004220427824668776,-0.0010670368959457893,0.0,1.2009682532858392e-15,9.80665
374,278.813,0.88,-0.0014750831065608698,-0.0001649695682946769,-0.7068106292448469,-0.7074012517996049,0.002442771010661918,-0.0016129357790776227,-0.0004265552249186511,0.0,1.2009682532858392e-15,9.80665
375,278.906,0.882,-0.0014930096175152213,-0.0001564750476605203,-0.706805818316136,-0.7074060226272999,0.002107535005008517,-0.0017676772072866352,-0.0010797838141849828,0.0,1.2009682532858392e-15,9.80665
376,279.012,0.924,-0.0015134419848395308,-0.00014679312091621513,-0.7068003348920139,-0.7074114603448878,0.0017254380523283883,-0.00194404915771837,-0.001824323926681912,0.0,1.2009682532858392e-15,9.80665
377,279.106,0.884,-0.0015292070945591115,-0.0001327162556837576,-0.7068064793960578,-0.7074052894940256,0.0012899796618149998,-0.0015561377806590716,-0.0016227483130061698,0.0,1.2009682532858392e-15,9.80665
378,279.2,0.954,-0.0015439734699805396,-0.00011630987289570528,-0.7068172936056895,-0.7073944549556203,0.000813531945459706,-0.0009373041708024452,-0.0010555486287923586,0.0,1.2009682532858392e-15,9.80665
379,279.306,0.93,-0.0015583649346914562,-9.736417572455916e-05,-0.7068255290268317,-0.7073861980908978,0.0003076004954056111,-0.00032211141567682557,-0.0006400325330902643,0.0,1.2009682532858392e-15,9.80665
380,279.411,0.884,-0.0015600281720346723,-7.611835542393855e-05,-0.7068116256529323,-0.7074000884719602,-1.8937066080920587e-05,-0.00017319194762970255,-0.0014770625538656828,0.0,1.2009682532858392e-15,9.80665
381,279.506,0.892,-0.001561533005821391,-5.689594658052922e-05,-0.7067990464098804,-0.7074126559595882,-0.0003143758121876395,-3.845528606332316e-05,-0.00223437542980498,0.0,1.2009682532858392e-15,9.80665
382,279.626,0.882,-0.0015811077108211235,-4.6354849245801825e-05,-0.7067949733819103,-0.7074166826064714,-0.0005961627841126773,-0.0005250661441426997,-0.002022173717633033,0.0,1.2009682532858392e-15,9.80665
383,279.706,0.922,-0.0015988157414329022,-4.294880424093129e-05,-0.7067953724674095,-0.7074162442894536,-0.000759931155865429,-0.0010225846558769242,-0.0015726481319452675,0.0,1.2009682532858392e-15,9.80665
384,279.81,0.902,-0.0016148344542638276,-4.1228540263818775e-05,-0.706794998815628,-0.707416581728653,-0.0007187862866557517,-0.001515381125267585,-0.001234702476300339,0.0,1.2009682532858392e-15,9.80665
385,279.906,0.942,-0.0016007069442306075,-5.082176387927597e-05,-0.7067909684318417,-0.7074206397549146,0.00036828115349645777,-0.0013344112760387192,-0.0019404302025214505,0.0,1.2009682532858392e-15,9.80665
386,280.008,0.886,-0.0015856964648203152,-6.101456397069639e-05,-0.7067866861490688,-0.7074249514078176,0.0015232903086578584,-0.0011421308112331031,-0.0026902659116311723,0.0,1.2009682532858392e-15,9.80665
387,280.135,0.958,-0.001570519942373761,-6.683681727954244e-05,-0.7067889365445891,-0.7074227363798966,0.0014691575793549687,-0.0007633277522400225,-0.002993303393945094,0.0,1.2009682532858392e-15,9.80665
388,280.213,0.886,-0.001561956379734764,-6.893168376784593e-05,-0.7067919535181619,-0.7074197408691841,0.0011141645088790688,-0.0005006215339525681,-0.0030434587020427154,0.0,1.2009682532858392e-15,9.80665
389,280.315,0.944,-0.001546780098643125,-6.805670574654417e-05,-0.706795618408013,-0.7074161124375761,0.0007253141151741134,-0.00019230451900511844,-0.003123540712520481,0.0,1.2009682532858392e-15,9.80665
390,280.409,0.852,-0.0015208802847035876,-5.642481475059741e-05,-0.7067981560801028,-0.7074136334974015,0.0005927062658593129,-1.3662232086072317e-05,-0.00324075363017618,0.0,1.2009682532858392e-15,9.80665
391,280.498,0.93,-0.001496358120441684,-4.541164136081752e-05,-0.7068005587696347,-0.7074112864157469,0.00046715202555061287,0.00015547780552877726,-0.0033517318181693475,0.0,1.2009682532858392e-15,9.80665
392,280.614,0.876,-0.001481496723326474,-4.560843350954146e-05,-0.7068007851582658,-0.7074110920015957,-0.0001727785356341133,-0.00020969620859237657,-0.0027437187340112437,0.0,1.2009682532858392e-15,9.80665
393,280.702,0.912,-0.001477863878530525,-5.225998410454887e-05,-0.7067996586842888,-0.7074122246328638,-0.0008710760436952223,-0.0007484169690869834,-0.001946135243400919,0.0,1.2009682532858392e-15,9.80665
394,280.801,0.91,-0.001479880505757183,-5.7691923153151247e-05,-0.7067981964320303,-0.707413680475188,-0.0015136160375550968,-0.001289119990542535,-0.0011432706099003516,0.0,1.2009682532858392e-15,9.80665
395,280.906,0.886,-0.0015396334264304891,-4.4092350992634646e-05,-0.7067948051689017,-0.7074169390477756,-0.0008448425494133846,-0.0012456545489840174,-0.0011829848214983973,0.0,1.2009682532858392e-15,9.80665
396,281.006,0.908,-0.0015965409699288467,-3.1140377506435024e-05,-0.7067915753944936,-0.7074200424502398,-0.0002079154178501769,-0.001204258890356879,-0.001220807880163183,0.0,1.2009682532858392e-15,9.80665
397,281.106,0.882,-0.0016230236567927104,-2.8308948593224953e-05,-0.7067870200011213,-0.7074245353071137,-0.00018150297958535922,-0.000952358055349291,-0.0013235237628939523,0.0,1.2009682532858392e-15,9.80665
398,281.211,0.876,-0.0016336287321333106,-3.105794843524523e-05,-0.7067814873535121,-0.7074300383829784,-0.0004989455344649137,-0.000568845790406937,-0.0014680648441370348,0.0,1.2009682532858392e-15,9.80665
399,281.306,0.872,-0.0016369888135712256,-3.1187346084277215e-05,-0.7067788115241244,-0.7074327038220655,-0.0007183075512165819,-0.0002775239363114786,-0.0016079367409774898,0.0,1.2009682532858392e-15,9.80665
400,281.405,0.864,-0.0016084089042308649,-1.919041798737464e-05,-0.7067880112803533,-0.707423577442883,-0.0005978015645620178,-0.000260356526068366,-0.0018005037476770042,0.0,1.2009682532858392e-15,9.80665
401,281.506,0.874,-0.0015792516229846355,-6.9511277066950775e-06,-0.7067973968902436,-0.7074142666924038,-0.00047486111353058183,-0.0002428422994567039,-0.001996960996936124,0.0,1.2009682532858392e-15,9.80665
402,281.609,0.85,-0.0015853352274871493,-4.181471510290907e-06,-0.706796647680826,-0.7074150016761996,-0.00043425025069154745,-0.0005462017204416142,-0.001671076608258091,0.0,1.2009682532858392e-15,9.80665
403,281.704,0.902,-0.0016102598231460363,-6.8637238650165685e-06,-0.7067903916692394,-0.7074211957323687,-0.00044249911577655854,-0.0009992040056539969,-0.001086754996804536,0.0,1.2009682532858392e-15,9.80665
404,281.795,0.914,-0.0016336060584379326,-8.776617090651815e-06,-0.7067849148264407,-0.7074266148408116,-0.00045898462150832794,-0.001418168515530973,-0.0005473544989504541,0.0,1.2009682532858392e-15,9.80665
405,281.893,0.898,-0.0016463596057535819,4.538771450640258e-06,-0.7067910973220479,-0.7074204079374073,-0.0006778010284755995,-0.0015188582608869434,-0.0004423740363969399,0.0,1.2009682532858392e-15,9.80665
406,281.996,0.894,-0.001659763844258812,1.8533516550168924e-05,-0.7067975952511046,-0.707413884355258,-0.0009077815378392822,-0.001624685238148887,-0.0003320374277947187,0.0,1.2009682532858392e-15,9.80665
407,282.099,0.872,-0.0014150879932366463,-0.00014336144057961915,-0.7068015075809051,-0.7074102751400915,-0.0020320841399955702,0.007195759742523296,-0.0003028244662564314,0.0,1.2009682532858392e-15,9.80665
408,282.211,0.858,-0.0009225587385661641,-0.00047375168963460703,-0.7068034928144392,-0.7074089080116761,-0.004039424496703559,0.024620027138857737,-0.0003422476451378485,0.0,1.2009682532858392e-15,9.80665
409,282.305,0.818,-6.236840092442141e-05,-0.0010947893039103128,-0.7068043806862702,-0.7074030479671679,-0.0060598510280266225,0.04246624171735214,-0.0003915494391695255,0.0,1.2009682532858392e-15,9.80665
410,282.396,0.734,0.003465534610791381,-0.003769451967993859,-0.7068005455443209,-0.707368948743213,-0.010040676191450996,0.07917939007283945,-0.0005370821543038657,0.0,1.2009682532858392e-15,9.80665
411,282.499,0.748,0.00745865560207408,-0.006796817400967524,-0.7067962046693673,-0.707330352918297,-0.014546445332469763,0.1207338327169622,-0.0007018059967086674,0.0,1.2009682532858392e-15,9.80665
412,282.602,0.714,0.012776232499390831,-0.010841587934645906,-0.7067324023614623,-0.707235333844277,-0.016696043610572826,0.13793027341365813,8.93767084926523e-05,0.0,1.2009682532858392e-15,9.80665
413,282.706,0.72,0.019103845226102405,-0.015661847439586433,-0.7066249528583093,-0.7070985630041671,-0.017161528587341508,0.1376676205396651,0.001579958287999649,0.0,1.2009682532858392e-15,9.80665
414,282.802,0.708,0.024709205904109705,-0.019935073781412627,-0.7065272236506316,-0.706969592392071,-0.017090008817610945,0.13441207364200095,0.002735089343040795,0.0,1.2010643307461025e-15,9.807434532000004
415,282.903,0.732,0.028475613997959223,-0.022836223237809566,-0.7064375686380744,-0.7068092887456638,-0.012479964423922546,0.10372470657526023,0.001952690307050568,0.0,1.2020347130947574e-15,9.815358305200004
416,283.011,0.716,0.03250306027653117,-0.025938442458511388,-0.7063416999117756,-0.7066378749455453,-0.007550412002948582,0.0709104922860706,0.0011160655952986024,0.0,1.2030723496655966e-15,9.823831250800005
417,283.106,0.662,0.03483137454008857,-0.027668924300624745,-0.7062754018057428,-0.7065339145352152,-0.006017550963359264,0.05476191579048716,0.0006043408678257705,0.0,1.2036764127733284e-15,9.828763800398407
418,283.206,0.678,0.03666307456654494,-0.028981471220570314,-0.7062148076949748,-0.7064483546898451,-0.005833337027802131,0.04424678820715722,0.0001799932911070877,0.0,1.2041548861810121e-15,9.832670832270917
419,283.306,0.634,0.03841730118170865,-0.030243230414918647,-0.7061565334248887,-0.7063651137887116,-0.005430088962428705,0.03439616087079173,-0.0003362715002146762,0.0,1.2046336083948674e-15,9.8365798958
420,283.412,0.632,0.03972719693306521,-0.03122041484904231,-0.7061112192914961,-0.7062933286671642,-0.0034488515937706223,0.028668358415366767,-0.0015355587583032024,0.0,1.2051428189342607e-15,9.8407379154
421,283.506,0.664,0.04088880259936252,-0.032086974630246304,-0.7060710350599969,-0.7062296701631505,-0.0016919052479795124,0.02358898642659374,-0.002599077647551506,0.0,1.205594382997496e-15,9.8444252158
422,283.605,0.63,0.04124182349254109,-0.03239585813048644,-0.7060648096236337,-0.7062025691097653,7.077918387969899e-05,0.01124026399850648,-0.0020960999988017723,0.0,1.2060699664257976e-15,9.848308649200002
423,283.704,0.582,0.041075428653191186,-0.032344427343712484,-0.7060801255002955,-0.7061993053310077,0.0017811166681349511,-0.005285383105278242,-0.0006245180340483576,0.0,1.2065455498540987e-15,9.8521920826
424,283.797,0.592,0.040894275965912746,-0.03227637857819844,-0.7060950919134832,-0.7061979354096884,0.0033322607707232887,-0.019967668533324365,0.0006912118750624039,-0.00015690640000074922,1.2069730945522684e-15,9.85568325
425,283.906,0.592,0.04003411861266426,-0.0316819741181815,-0.7061277263710872,-0.7062405593914338,0.003701988236047326,-0.015223323836922665,0.0004948098779423189,-0.004432605799999982,1.2069730945522684e-15,9.85568325
426,284.018,0.616,0.039150287203821896,-0.03107120990238435,-0.706161259024772,-0.7062843565102915,0.004081891686655465,-0.01034840084612518,0.00029300232126849455,-0.008825984999998662,1.2069730945522684e-15,9.85568325
427,284.104,0.612,0.039077923787245915,-0.03087307378541762,-0.710841848391459,-0.7014872215001665,0.002752667733468611,-0.005243544686587062,0.08225574794350578,-0.00980665,1.2069730945522684e-15,9.85568325
428,284.198,0.576,0.039270424045014,-0.030777833572844398,-0.7180430256625854,-0.6940798502156339,0.0005736801913014417,0.0009461298771184859,0.20862841095131412,-0.00980665,1.2069730945522684e-15,9.85568325
429,284.292,0.504,0.03946292430278208,-0.030682593360271175,-0.7252442029337116,-0.6866724789311013,-0.0016053073508657274,0.007135804440824033,0.3350010739591225,-0.00980665,1.2069730945522684e-15,9.85568325
430,284.406,0.494,0.03902287625952978,-0.03196448135602702,-0.7325940336923905,-0.6786894392643803,0.006916385264135863,0.008033587161451604,0.23429717293381733,-0.00980665,1.2075159322027536e-15,9.8601158558
431,284.512,0.448,0.038608166814012,-0.03316791079043145,-0.7394167025766598,-0.671274844472155,0.014931930161080808,0.008813986476510736,0.1385704574286991,-0.00980665,1.2080251427421467e-15,9.8642738754
432,284.605,0.47,0.03828023046539004,-0.033973841521088136,-0.7428323525132119,-0.6675072070620375,0.015320928744971379,0.00726509940158543,0.09395318198203724,-0.012238699200000463,0.0024320492000016714,9.863057850799999
433,284.706,0.47,0.037943585414502955,-0.03471339673157023,-0.7451461340019628,-0.6649020290616948,0.012135893408208741,0.00437011837912693,0.0668758532106847,-0.016200585800000427,0.006393935800001635,9.8590959642
434,284.801,0.462,0.03756318886595568,-0.035297392639476025,-0.7472191375267483,-0.6625752202713462,0.00916845967904496,-0.00023803046704433807,0.0427051130977908,-0.019301977777778517,0.010117972222222691,9.855994572222222
435,284.906,0.558,0.03637648978489985,-0.03460115471322157,-0.7482684054483008,-0.6614891977607983,0.0062299239160937825,-0.02799021719173136,0.03159211734162014,-0.015215873611111295,0.014204076388889911,9.860080676388888
436,285.021,0.516,0.035076771743743594,-0.033838608413038186,-0.7494176036480962,-0.6602997445349602,0.003011527604290417,-0.05838546931876667,0.019420741037243894,-0.010740616666666666,0.01867933333333454,9.864555933333333
437,285.1,0.538,0.032703778226145334,-0.03192737249527113,-0.7499593426857777,-0.6598827614100568,0.0024345091592715214,-0.07665063509620644,0.014293659979618997,-0.011972777510040718,0.015281044979919771,9.8654899
438,285.206,0.512,0.028653136600403542,-0.028550606005166748,-0.7505411985986721,-0.6595575352778762,0.0026169194948362454,-0.09962721207894012,0.009307867604265625,-0.016147495983936642,0.006931608032127924,9.8654899
439,285.306,0.504,0.026281355587804422,-0.029818644188273995,-0.7475724395351796,-0.6624035475696504,-0.006536942496896143,0.005909424722199394,0.0023657590299843673,-0.020084019200000018,0.00047071920000122595,9.8650191808
440,285.415,0.33405172413793105,0.035283082517470546,-0.06680045027373444,-0.7162185054659304,-0.6907073172858801,-0.09106005679818935,1.1377974970642672,-0.023094462670394795,-0.02435971860000148,0.004746418600002688,9.860743481399998
441,285.506,0.5580357142857143,0.042798285733974206,-0.09767516911569728,-0.6900422852796994,-0.7143370699847299,-0.16162522561847317,2.08276827305544,-0.04435024408995876,-0.02792933919999957,0.008316039200000777,9.857173860800001
442,285.626,0.505,0.09816318705308313,-0.13105759079993565,-0.6789859656967329,-0.7108824611176571,-0.09052541399002856,1.9822410564422992,-0.03438644958287648,-0.01977020640000075,0.06770511159999676,10.212723763199973
443,285.706,0.57,0.14911605006905032,-0.15104752440777525,-0.6788634385997362,-0.6978854092874627,0.007588327884716445,1.4991870098111928,-0.0160061226561588,-0.010355822399995933,0.1241914156000257,10.561055971200151
444,285.808,0.575,0.2096809731014815,-0.17759241504416626,-0.6770373966215079,-0.6821698231149945,0.10895667763958627,0.9742454937526203,0.003927479564611083,-0.20621984000014354,0.2535719500000481,10.68364469999982
445,285.906,0.49330357142857145,0.24129838910588888,-0.20948416071865922,-0.6651985614207896,-0.6722380190001289,0.06305931348884819,1.0191710403987437,0.0019341777744032217,-1.6497587200003112,0.7242911500001024,8.859607799999607
446,286.026,0.5569948186528497,0.28001359237658807,-0.24853527787109578,-0.6507020285219524,-0.6600766262064172,0.0068584594267253746,1.0741819138429711,-0.0005065999278918822,-3.417357348571774,1.3006820071429706,6.626093228570992
447,286.106,0.5377643504531722,0.3107000467542206,-0.27979873145896667,-0.6347449425105465,-0.6459209500950531,0.0007895758060519335,1.1975199905096465,-0.0007840383592446667,-4.392148561568726,0.8864442450979797,6.639217422352973
448,286.213,0.486013986013986,0.353008657010366,-0.3229707016218242,-0.6117692824204677,-0.6254181660286455,0.0008207850486916765,1.3849753113354621,-0.0008048328461455965,-5.643092527059269,0.12517900294090611,7.04659720058838
449,286.305,0.5130434782608696,0.39089944758751016,-0.36118799141492186,-0.5894418546568185,-0.6057990832458843,0.0006279500233936037,1.5550813016892098,-0.012797202292390524,-6.662128064200158,-0.4511058999999991,7.2639425613998005
450,286.421,0.4046242774566474,0.4527250981201359,-0.41956451585151006,-0.5374038502421605,-0.562580819514624,-0.001654726593289712,1.8524690313339478,-0.13909618663183546,-7.4220257594000625,-0.4511058999999993,6.303832299799921
451,286.498,0.48322147651006714,0.49376453855990027,-0.45831445017580097,-0.5028613817944962,-0.5338928341068018,-0.0031699515888468956,2.0498729553222854,-0.22293258140888936,-7.926440608800051,-0.45110589999999934,5.666517729599936
452,286.608,0.47761194029850745,0.5182880610451777,-0.48147512126439884,-0.48216492390404164,-0.5167941211942272,-0.002839063372151061,1.6148939717604418,-0.20355254569019024,-8.31529686394424,-0.9312019764941207,0.6773621157361216
453,286.689,0.7388059701492538,0.5182962296048642,-0.4814894983519187,-0.4820881036063983,-0.516844194488424,-0.0012746400480893247,0.9151190242654652,-0.1156370242379314,-8.426061217529908,-1.5388235733069195,-5.155172274503396
454,286.791,0.8686131386861314,0.5183065159392842,-0.48150760283249916,-0.48199136693529193,-0.516907249747783,0.000695374508135671,0.033920942235154516,-0.0049285898166187,-8.565542255378462,-2.303976695218986,-12.499845210357233
455,286.906,0.7883211678832117,0.5182414858626665,-0.48149825007298813,-0.48205617054102823,-0.5169207235334438,0.0007157339972909591,-0.0006441826866939658,-0.0005882692725863306,-8.928052613199968,-1.589422605400068,-7.114410762200512
456,287.024,0.7533333333333333,0.5181719259658268,-0.48148755274669347,-0.48212909369130236,-0.5169324183225088,0.0006552499786485063,-0.0006530458591878404,-0.0005895307969767598,-9.307609194799953,-0.7979082706001006,-1.0831641058007673
457,287.103,0.8066666666666666,0.5180946257980692,-0.48143810128071196,-0.48224443523044774,-0.5169483158776333,0.0006529679014347483,-0.0006517833559773867,-0.0005993078635074186,-9.482089111599988,-0.6638709783999991,-0.00980664999999992
458,287.211,0.8205128205128205,0.5179737386718459,-0.4813495641757394,-0.4824350434814774,-0.5169740427421726,0.0006687620221637185,-0.0006464953641407194,-0.0006170953852124506,-9.681203333199996,-0.6765803967999996,-0.009806649999999919
459,287.306,0.8175675675675675,0.5178655304055044,-0.48126833114797996,-0.48260546432244716,-0.5169990645408981,0.0006807411839254209,-0.0006437176074832639,-0.000631962390616533,-9.841679353799984,-0.6868969925999987,-0.009806649999999917
460,287.409,0.8108108108108109,0.5177327077298318,-0.481152495147497,-0.4828130559445344,-0.5170459952286318,0.0006778838294558234,-0.000656219240743664,-0.0006416281568817771,-9.894203771199988,-0.690937332399999,-0.009806649999999917
461,287.506,0.8378378378378378,0.5176076222974022,-0.48104340687519753,-0.48300855485077177,-0.5170901920898956,0.0006751929228194071,-0.0006679926235228724,-0.0006507308688014703,-9.943668513799977,-0.6947423125999982,-0.009806649999999915
462,287.606,0.8355263157894737,0.5174885073389421,-0.4809357210342901,-0.4831820245835572,-0.5171475109642019,0.000693197283195325,-0.0006843598284758588,-0.000635773323476321,-9.9635564,-0.69627215,-0.009806649999999915
463,287.703,0.8618421052631579,0.5173790676814688,-0.4808342278548092,-0.4833328787923591,-0.5172104003612249,0.0007235475834458937,-0.000702859122771762,-0.0006061686077155298,-9.9635564,-0.69627215,-0.009806649999999915
464,287.805,0.8356164383561644,0.5172663351030955,-0.4807294558065946,-0.48348595480809226,-0.51727753961715,0.0007522954442538321,-0.000719253739807756,-0.0005826421012170571,-9.963948666,-0.69627215,-0.009806649999999915
465,287.906,0.8082191780821918,0.5171761002854872,-0.48064349999976813,-0.4835869325585558,-0.5173532045791691,0.0007519117353949696,-0.0007076275753788662,-0.0006286192503757728,-9.9679105526,-0.69627215,-0.009806649999999915
466,288.026,0.823943661971831,0.5170688906012001,-0.48054137428868715,-0.48370690612346295,-0.5174431035439443,0.0007514558436814696,-0.0006938143107108779,-0.000683245566207913,-9.972617744599999,-0.69627215,-0.009806649999999915
467,288.103,0.852112676056338,0.5170109771293214,-0.48048369647918915,-0.48375869977691427,-0.5175061010767283,0.0007561329989694053,-0.000784758917987335,-0.0007021715333685265,-9.9710879072,-0.69627215,-0.009806649999999915
468,288.208,0.96,0.5169368641371492,-0.4804085528576276,-0.48381807517511777,-0.5175943798810895,0.0007647309387102732,-0.0009533594229724434,-0.0007207760859746504,-9.9669691142,-0.69627215,-0.009806649999999915
469,288.306,0.9801324503311258,0.5190031117877706,-0.4777811850635244,-0.4812978772180968,-0.5198296505736685,0.0008226464382862797,-0.0010545748680469034,-0.045104024641078364,-9.955423106944469,-0.6958440819444457,-0.009806649999999915
470,288.409,0.6458333333333334,0.5389257047439572,-0.4537624658423133,-0.45723899942712853,-0.5400750065688492,0.0012982395031332899,-0.0006942423254563479,-0.46054828241511453,-9.879265908333354,-0.6918358083333344,-0.009806649999999915
471,288.506,0.40869565217391307,0.5576877583046324,-0.4311428953136065,-0.4345816096628251,-0.5591410214380916,0.0017461281176007325,-0.00035490002806534053,-0.8517919038138506,-9.807545051388928,-0.6880610263888909,-0.009806649999999917
472,288.62,0.5625,0.5577348157987215,-0.43143757688627865,-0.43487015509359506,-0.5593886628961064,0.0015625830014595907,-0.0003659390682170689,0.3035396505070391,-6.913688250000439,-0.48521256224902676,-0.006931608032128896
473,288.706,1.0,0.5484476462973267,-0.443048202414256,-0.44649238391615875,-0.5501864395680003,0.001123324617973451,-0.0005479202309834554,1.8594358283355494,-3.5402006499994902,-0.24812006024092792,-0.003544572289156084
474,288.799,0.6666666666666666,0.5382540736569488,-0.4557138102109726,-0.4591721685846673,-0.5400809445523277,0.0006656331850681361,-0.000737889853305695,3.4458382810183905,-0.05264209719979872,-0.02989066919985954,3.660551235998037e-18
475,288.906,0.7297297297297297,0.5213323173066249,-0.47408047343203824,-0.4776113738497803,-0.5231299581778489,0.0007368799578398557,-0.0007209203462114008,1.9527963318068493,-1.580439714000195,-1.0959912040001358,1.3422021198724204e-16
476,288.995,0.9866666666666667,0.507257211557294,-0.48935741760656526,-0.492948656733842,-0.5090305396046882,0.0007961412922013633,-0.0007068055225535338,0.7109203179770298,-2.8512246476001755,-1.9827477236001223,2.428165653223591e-16
477,289.101,0.9932885906040269,0.49917750472395156,-0.4981020276469145,-0.501879613452556,-0.5008322270231141,0.0008177187677938475,-0.0006921689247246824,-0.0006645435816608304,-4.94941625500017,-1.9407360349999316,2.376716173252592e-16
478,289.194,0.9863945578231292,0.49915349923048613,-0.49808580519220674,-0.5021200212241,-0.5006312278514691,0.0007967831715941374,-0.0006810962972231181,-0.0005766917997970944,-7.265943118000612,-1.0104772159997544,1.237477688185428e-16
479,289.301,1.0,0.4991253436914511,-0.4980673747668509,-0.5024157066884574,-0.500381000144084,0.000774299858603626,-0.0006701557571068396,-0.00047901428304612743,-9.80665,0.00980665,-1.2009682532858392e-18
480,289.406,1.0,0.4990869780921757,-0.49805397559764814,-0.5030879676050479,-0.4997556830810798,0.0007843443402089192,-0.0006954320287331972,-0.00045121134258806336,-9.80665,0.00980665,-1.2009682532858392e-18
481,289.506,0.9863945578231292,0.4990504394261992,-0.49804121448412175,-0.5037282160970387,-0.49916014302107603,0.0007939105131663362,-0.000719504668377335,-0.00042473235167563494,-9.80665,0.00980665,-1.2009682532858392e-18
482,289.594,0.9863013698630136,0.4990166382644108,-0.49803549684827497,-0.5043053413809269,-0.49861641893550185,0.0007699232907034447,-0.0007294386578723789,-0.0004094704035669562,-9.80665,0.00980665,-1.2009682532858392e-18
483,289.699,0.9863013698630136,0.49897466955572817,-0.4980341554941958,-0.50500758550894,-0.497948120050812,0.0007090808402281138,-0.000730105700204149,-0.0003992540091276148,-9.80665,0.00980665,-1.2009682532858392e-18
484,289.802,1.0,0.49893404385032597,-0.4980333003683744,-0.5056857644111231,-0.49730221246151163,0.0006541955768060283,-0.0007308527747952048,-0.00038909106942049186,-9.80665,0.00980665,-1.2009682532858392e-18
485,289.889,1.0,0.49890715196734686,-0.49803886880122566,-0.5061126311970612,-0.49688857509585727,0.0006733583676001714,-0.000732750165511843,-0.0003785794796570534,-9.80665,0.00980665,-1.2009682532858392e-18
486,289.993,1.0,0.49887500534861323,-0.4980455253186571,-0.5066229087342745,-0.49639411203806355,0.0006962656117678825,-0.0007350183107363299,-0.00036601390108926516,-9.80665,0.00980665,-1.2009682532858392e-18
487,290.096,0.9931506849315068,0.49884731195695,-0.4980566352740546,-0.5070334966393413,-0.4959917415643748,0.000724789699879393,-0.0007433172279214007,-0.00035352147308238564,-9.80665,0.00980665,-1.2009682532858392e-18
488,290.199,1.0,0.4988241855601485,-0.49807272363595895,-0.5073396296803722,-0.49568562127655996,0.0007597465169495848,-0.0007582863364669093,-0.00034097650824415184,-9.80665,0.00980665,-1.2009682532858392e-18
489,290.3,1.0,0.4988021357089983,-0.4980886295914091,-0.5076316729591337,-0.49539300174371775,0.0007912617152287,-0.0007721242016284831,-0.00032846804242581194,-9.80665,0.00980665,-1.2009682532858392e-18
490,290.426,1.0,0.4987896578982846,-0.4981115862209951,-0.5078009009347806,-0.495208952625623,0.0007644007132584595,-0.0007692532833769097,-0.0003079030429944449,-9.80665,0.00980665,-1.2009682532858392e-18
491,290.506,1.0,0.4987817354787839,-0.49812616185882747,-0.5079083472685245,-0.4950920960427057,0.0007473461088329103,-0.0007674304781378155,-0.000294845900498339,-9.80665,0.00980665,-1.2009682532858392e-18
492,290.601,0.9931972789115646,0.4987759482602735,-0.49814478421226677,-0.5079810603806221,-0.4950046114301976,0.0007316821552813087,-0.0007525934162549743,-0.0002872851798310879,-9.80665,0.00980665,-1.2009682532858392e-18
493,290.7,1.0,0.49877278213299375,-0.4981652301671921,-0.5080134129683872,-0.49495401947163215,0.0007189891291782307,-0.0007271048135589903,-0.0002856921320781117,-9.80665,0.00980665,-1.2009682532858392e-18
494,290.812,1.0,0.4987702743554369,-0.49818800592511264,-0.508040977704792,-0.4949053331103992,0.0007125530380289947,-0.0007023165817372499,-0.0002872110716998548,-9.80665,0.00980665,-1.2009682532858392e-18
495,290.906,1.0,0.49877399918411913,-0.49820519446800776,-0.5080150696520914,-0.4949108699457972,0.00075015623518265,-0.0007034787326119838,-0.0003065111804753501,-9.80665,0.00980665,-1.2009682532858392e-18
496,291.003,1.0,0.49877784289031246,-0.4982229315814208,-0.5079883347466452,-0.4949165834887079,0.0007889595343731186,-0.0007046779734082515,-0.00032642725016920936,-9.80665,0.00980665,-1.2009682532858392e-18
497,291.106,1.0,0.49878650245462425,-0.4982416101509063,-0.5079352781012283,-0.49494350013426863,0.0007911171445278998,-0.0007073810828071693,-0.0003251848479613222,-9.80665,0.00980665,-1.2009682532858392e-18
498,291.197,1.0,0.4987971695478589,-0.4982580099990178,-0.5078721495938566,-0.49498101825493096,0.0007672969129845417,-0.0007107112569319286,-0.00030933465971330956,-9.80665,0.00980665,-1.2009682532858392e-18
499,291.298,1.0,0.49880917169358113,-0.4982761501254148,-0.5078015389577677,-0.495023115402535,0.0007409832456086064,-0.0007141044370800365,-0.00029254627119067265,-9.80665,0.00980665,-1.2009682532858392e-18
500,291.408,1.0,0.49883102242629324,-0.4982925694622216,-0.5076952586172551,-0.4950935555866214,0.000719019020740609,-0.0007014678275413,-0.0003175835289335661,-9.80665,0.00980665,-1.2009682532858392e-18
501,291.506,1.0,0.4988504894427095,-0.4983071975986495,-0.5076005724957077,-0.49515631138698923,0.0006994508931309496,-0.0006902097572249776,-0.00033988944946813113,-9.80665,0.00980665,-1.2009682532858392e-18
502,291.626,1.0,0.49887751572050626,-0.49832063188135167,-0.5074738595316305,-0.4952454221712938,0.0006884391328785586,-0.0007084750360809124,-0.00034120215708390364,-9.80665,0.00980665,-1.2009682532858392e-18
503,291.706,1.0,0.49889663664585904,-0.4983280388161103,-0.5073856576251866,-0.495309073621015,0.0006855782775674018,-0.0007317411503754532,-0.0003330812850035734,-9.80665,0.00980665,-1.2009682532858392e-18
504,291.799,1.0,0.4989189462477007,-0.49833658091068966,-0.5072829251496719,-0.49538325557055,0.0006831960448349409,-0.0007575184887876355,-0.00032407850392562963,-9.80665,0.00980665,-1.2009682532858392e-18
505,291.906,1.0,0.49894888213273003,-0.49834282469728064,-0.5071543749786603,-0.4954784013335829,0.0007298475196789093,-0.0007207176258019482,-0.00033663553779432617,-9.80665,0.00980665,-1.2009682532858392e-18
506,291.999,1.0,0.4989749011729892,-0.49834825153983164,-0.5070426444561924,-0.49556109811827503,0.0007703950632348791,-0.0006887318290013063,-0.0003475495952689869,-9.80665,0.00980665,-1.2009682532858392e-18
507,292.106,1.0,0.49900668957027444,-0.4983513771679901,-0.506912472163398,-0.49565910324245005,0.0007922273200757083,-0.0006956931717420715,-0.00036609523422851206,-9.80665,0.00980665,-1.2009682532858392e-18
508,292.201,1.0,0.4990363024471022,-0.4983518133883655,-0.5067956819103852,-0.49574826188897303,0.0007929946863967701,-0.0007346989832403363,-0.00038705292474815217,-9.80665,0.00980665,-1.2009682532858392e-18
509,292.304,1.0,0.49906884020263637,-0.49835212316356997,-0.5066683621534684,-0.49584535884501224,0.0007938504293431626,-0.0007722342706984045,-0.00040765585597708396,-9.80665,0.00980665,-1.2009682532858392e-18
510,292.401,1.0,0.49910505119245274,-0.49835030736563557,-0.5065394888843963,-0.49594235603821507,0.0007949631452368247,-0.0007461674395017314,-0.0003996829193691526,-9.80665,0.00980665,-1.2009682532858392e-18
511,292.502,1.0,0.4991427554189625,-0.4983484166894358,-0.5064053012537129,-0.4960433531156736,0.0007961217463219777,-0.0007190256874309792,-0.00039138120187017574,-9.80665,0.00980665,-1.2009682532858392e-18
512,292.6,1.0,0.4991793260423771,-0.4983446581590707,-0.5062765120359946,-0.49614178099325523,0.0007837043634818537,-0.0007115843679545664,-0.0003997639897504844,-9.80665,0.00980665,-1.2009682532858392e-18
513,292.7,1.0,0.49921663014486034,-0.49833901362819344,-0.5061464228815113,-0.49624262263556135,0.0007582993951678744,-0.0007217588793155869,-0.0004237756825938415,-9.80665,0.00980665,-1.2009682532858392e-18
514,292.817,1.0,0.4992611678220914,-0.49833149221396544,-0.5059948505339434,-0.4963599588076892,0.0007400686112399424,-0.0007254510053036512,-0.0004606541305079024,-9.80665,0.00980665,-1.2009682532858392e-18
515,292.905,0.9931506849315068,0.4992979196925096,-0.49832248884914626,-0.5058831527159793,-0.49644584583568885,0.0007682815667211992,-0.0006982715451622521,-0.0005204373962742791,-9.80665,0.00980665,-1.2009682532858392e-18
516,293.006,1.0,0.4993401008165123,-0.498312155441797,-0.5057549540839976,-0.49654442072009763,0.0008006623451712904,-0.0006670769374999527,-0.0005890522808470787,-9.80665,0.00980665,-1.2009682532858392e-18
517,293.101,1.0,0.499379768539129,-0.4983014898763874,-0.5056353755275597,-0.49663700117175064,0.0007997606843560357,-0.0006635599455470767,-0.0005933206271750505,-9.80665,0.00980665,-1.2009682532858392e-18
518,293.204,1.0,0.49942277017857345,-0.49828911334794285,-0.5055065900912303,-0.4967372588755792,0.0007718400370486734,-0.0006819348017887074,-0.0005461649418000666,-9.80665,0.00980665,-1.2009682532858392e-18
519,293.295,1.0,0.49946076191827676,-0.49827817874514235,-0.5053928087834053,-0.4968258360702238,0.0007471722806897414,-0.0006981688980798569,-0.000504503122682362,-9.80665,0.00980665,-1.2009682532858392e-18
520,293.401,1.0,0.4995065554863945,-0.49826299604198176,-0.505266015287026,-0.4969239408613456,0.0007316833472416819,-0.0007305923111280288,-0.00047027843561678995,-9.80665,0.00980665,-1.2009682532858392e-18
521,293.505,1.0,0.499551514071222,-0.4982480536597618,-0.5051417224787307,-0.4970200989009368,0.0007167365622850301,-0.0007626589308511189,-0.00043696939292743554,-9.80665,0.00980665,-1.2009682532858392e-18
522,293.601,1.0,0.4995921859018924,-0.4982332239557615,-0.5050303547426009,-0.4971072521826412,0.0007322175205258787,-0.0007830423131831971,-0.0004523629673296575,-9.80665,0.00980665,-1.2009682532858392e-18
523,293.706,1.0,0.4996358712483499,-0.4982160034407361,-0.5049117928724384,-0.49720102426015683,0.0007774052322359803,-0.0007964419656859589,-0.0005137285516395512,-9.80665,0.00980665,-1.2009682532858392e-18
524,293.803,1.0,0.4996761127923492,-0.49820009797384246,-0.5048026127347118,-0.4972874067747006,0.0008165148445405023,-0.0008066694000735802,-0.0005673585189506376,-9.80665,0.00980665,-1.2009682532858392e-18
525,293.898,1.0,0.49971289699577986,-0.4981845889690457,-0.504703618089625,-0.4973664288645189,0.000794812344014634,-0.0007676997052039762,-0.0005502013440709477,-9.80665,0.00980665,-1.2009682532858392e-18
526,294.021,1.0,0.49976052285916905,-0.4981645088891511,-0.5045754460754602,-0.4974687416755466,0.0007667133170179938,-0.0007172442055307179,-0.0005279873176477781,-9.80665,0.00980665,-1.2009682532858392e-18
527,294.106,1.0,0.4997936388966556,-0.49814990004923937,-0.5044894695590086,-0.49753728586378254,0.0007742078294977585,-0.0007133197372313612,-0.0005415435298346035,-9.80665,0.00980665,-1.2009682532858392e-18
528,294.204,1.0,0.4998319351948617,-0.4981326421378052,-0.5043918148845771,-0.497615090070249,0.0007980906683951689,-0.0007263199298176955,-0.000573544937651614,-9.80665,0.00980665,-1.2009682532858392e-18
529,294.306,0.9931506849315068,0.49987180464875225,-0.4981148292174907,-0.5042901669054441,-0.4976959115628461,0.0008208153282757845,-0.0007408794211223737,-0.0006030039417091745,-9.80665,0.00980665,-1.2009682532858392e-18
530,294.404,1.0,0.4999102415275654,-0.4980996628454078,-0.5041924086362954,-0.4977714982285899,0.0008148363244254131,-0.0007682811142876796,-0.0005811251781415153,-9.80665,0.00980665,-1.2009682532858392e-18
531,294.505,1.0,0.49994985504552597,-0.4980840321966285,-0.5040916577670708,-0.4978493987718565,0.0008086742898449291,-0.0007965216347947767,-0.0005585766565054615,-9.80665,0.00980665,-1.2009682532858392e-18
532,294.609,1.0,0.4999866730782053,-0.4980677597314858,-0.5039940653626013,-0.49792750340422787,0.0007977500832472672,-0.000788900941384001,-0.0005373326802730154,-9.80665,0.00980665,-1.2009682532858392e-18
533,294.697,1.0,0.5000153620440323,-0.49805388055687944,-0.5039153039887916,-0.4979922827885495,0.0007856651079429091,-0.0007596798162291412,-0.0005205820886922833,-9.80665,0.00980665,-1.2009682532858392e-18
534,294.803,1.0,0.5000498699692011,-0.4980372087016255,-0.5038206213056589,-0.49807012247420274,0.0007712564635669372,-0.0007249174954506978,-0.0005019794714978415,-9.80665,0.00980665,-1.2009682532858392e-18
535,294.905,1.0,0.5000814489894201,-0.49802269368516994,-0.5037357547505259,-0.49813874674216235,0.000762289640191292,-0.0007058665468505977,-0.0005360878927473519,-9.80665,0.00980665,-1.2009682532858392e-18
536,295.006,1.0,0.5001127184114016,-0.49800832097279724,-0.5036517202204432,-0.49820669822318114,0.0007534107268487392,-0.0006870023722563765,-0.0005698619177101104,-9.80665,0.00980665,-1.2009682532858392e-18
537,295.106,1.0,0.5001451688259863,-0.4979947576697795,-0.5035671200720814,-0.4982731913573185,0.0007606311696544008,-0.0006779481569068476,-0.0005910513289329124,-9.80665,0.00980665,-1.2009682532858392e-18
538,295.207,1.0,0.5001791755147841,-0.49798161000527,-0.5034805189606117,-0.498339700264628,0.0007811550937232496,-0.0006767556497511724,-0.0006023295000270623,-9.80665,0.00980665,-1.2009682532858392e-18
539,295.3,1.0,0.5002104024120797,-0.49796950787923483,-0.5034009133891277,-0.49840088553157236,0.00080012983299741,-0.0006757066088510572,-0.0006124539162671616,-9.80665,0.00980665,-1.2009682532858392e-18
540,295.409,1.0,0.5002377077295418,-0.49795576999982144,-0.5033222817985221,-0.4984666011879175,0.0008306149231632164,-0.0006797617621948977,-0.0005962380613680796,-9.80665,0.00980665,-1.2009682532858392e-18
541,295.506,1.0,0.5002620069570081,-0.4979435445474994,-0.5032523068967906,-0.4985250820931054,0.0008577438566135202,-0.0006833704766384987,-0.0005818074382010069,-9.80665,0.00980665,-1.2009682532858392e-18
542,295.616,1.0,0.500288010608056,-0.4979312680756113,-0.5031741101707156,-0.49859017522419397,0.0008466573283412939,-0.0007023997707703844,-0.0005935413412746002,-9.80665,0.00980665,-1.2009682532858392e-18
543,295.702,1.0,0.5003075006075404,-0.4979225293241435,-0.5031136003817835,-0.4986404029476616,0.000815337298000345,-0.0007253619669244642,-0.0006179236935500238,-9.80665,0.00980665,-1.2009682532858392e-18
544,295.804,1.0,0.5003304688051019,-0.49791226450053727,-0.5030420190966791,-0.4986998346760285,0.0007796021644026045,-0.0007510432209819602,-0.0006444694749079761,-9.80665,0.00980665,-1.2009682532858392e-18
545,295.896,1.0,0.5003479180602092,-0.49790521013676203,-0.5029815688910562,-0.49875033083897846,0.0007785702357068657,-0.0007398889232426879,-0.0006159780039452004,-9.80665,0.00980665,-1.2009682532858392e-18
546,296.011,1.0,0.5003697296290934,-0.49789639218204296,-0.5029060061340275,-0.49881345104266583,0.0007772803248371927,-0.0007259460510686026,-0.000580363665241744,-9.80665,0.00980665,-1.2009682532858392e-18
547,296.1,1.0,0.5003843459179468,-0.49789012817405676,-0.5028504655948306,-0.49886103205870447,0.0007854737224988659,-0.0007226346526294951,-0.0005826137843541832,-9.80665,0.00980665,-1.2009682532858392e-18
548,296.206,1.0,0.5003996508806172,-0.49788318820317967,-0.5027870459886996,-0.49891652313061174,0.0008037711153738211,-0.000725638806819916,-0.0006129891979508118,-9.80665,0.00980665,-1.2009682532858392e-18
549,296.301,1.0,0.5004133614703614,-0.49787697751639776,-0.5027302262100884,-0.49896623375128496,0.0008200551299378262,-0.0007284190540667596,-0.000639944438124075,-9.80665,0.00980665,-1.2009682532858392e-18
550,296.409,1.0,0.5004282940209362,-0.49787088923398864,-0.5026676131525524,-0.49902040189717445,0.0008263217927888025,-0.0007409671403001973,-0.0006419481236953283,-9.80665,0.00980665,-1.2009682532858392e-18
551,296.506,1.0,0.5004417056635821,-0.4978654210544175,-0.5026113773508765,-0.4990690529170937,0.0008319501844234741,-0.0007522371807135597,-0.0006437477301806204,-9.80665,0.00980665,-1.2009682532858392e-18
552,296.626,0.9863013698630136,0.5004571207358519,-0.49786285715853473,-0.5025430998771812,-0.4991249057422925,0.0008445685771293892,-0.0007745614866726022,-0.0006259184414520944,-9.80665,0.00980665,-1.2009682532858392e-18
553,296.703,1.0,0.5004665749585185,-0.49786277257552314,-0.50249976868416,-0.499159134594154,0.0008547663232311558,-0.0007920000846497632,-0.0006070274994708687,-9.80665,0.00980665,-1.2009682532858392e-18
554,296.817,1.0,0.5004791873876409,-0.4978625265758579,-0.5024372810209967,-0.49920963991492256,0.0008646529783548506,-0.0008102226948652139,-0.0005834628232360744,-9.80665,0.00980665,-1.2009682532858392e-18
555,296.906,1.0,0.5004828655178886,-0.4978617965295884,-0.5023959137434519,-0.49924830705404083,0.0008491572606054926,-0.0007906139335738357,-0.0005846826673055496,-9.80665,0.00980665,-1.2009682532858392e-18
556,297.007,1.0,0.50048703957581,-0.49786096805011404,-0.5023489688554517,-0.49929218774000655,0.0008315722325977939,-0.0007683612943555299,-0.0005860669847327068,-9.80665,0.00980665,-1.2009682532858392e-18
557,297.111,1.0,0.5004906461341364,-0.4978610649571005,-0.5022994502767474,-0.49933829322807394,0.0008307519995344641,-0.0007638989631820813,-0.0005876727521040811,-9.80665,0.00980665,-1.2009682532858392e-18
558,297.208,1.0,0.5004933397121115,-0.497862076141477,-0.5022521216325314,-0.49938218856102806,0.0008467428373652122,-0.0007776212228821539,-0.0005893452287191738,-9.80665,0.00980665,-1.2009682532858392e-18
559,297.306,0.9931972789115646,0.5004959369187791,-0.49786318984439293,-0.5022045608181214,-0.49942631086194966,0.0008612401993013927,-0.0007883766212034994,-0.000591929832007735,-9.80665,0.00980665,-1.2009682532858392e-18
