,time,img_sim,orientation.x,orientation.y,orientation.z,orientation.w,angular_velocity.x,angular_velocity.y,angular_velocity.z,linear_acceleration.x,linear_acceleration.y,linear_acceleration.z
0,186.716,0.991304347826087,-0.0008238907072833712,0.0006631610393702387,-0.7064555567462825,-0.7077566161634514,0.0006232753228396177,-0.0005803149212151767,-0.0005844169147312638,0.0,-0.0098066499999988,9.80665
1,186.839,1.0,-0.000829025673796413,0.0006613908517768452,-0.7064510237274017,-0.7077611364632421,0.0006208807136863472,-0.0005795330705586823,-0.0005654579598922294,0.0,-0.0098066499999988,9.80665
2,186.942,0.9956140350877193,-0.0008342107061179033,0.0006586524513550893,-0.7064471549538097,-0.7077649945067044,0.0006183317168615758,-0.0005818157712928953,-0.0005522951432503759,0.0,-0.0098066499999988,9.80665
3,186.999,1.0,-0.0008393928871704207,0.0006538546345226887,-0.7064448236551762,-0.7077673196603759,0.0006155001290608204,-0.0005907552840653791,-0.0005521016602870076,0.0,-0.0098066499999988,9.80665
4,187.166,1.0,-0.0008545757684997295,0.0006397978729260031,-0.7064379933591799,-0.7077741319527114,0.0006072040735743945,-0.000616946488153188,-0.0005515347891487181,0.0,-0.0098066499999988,9.80665
5,187.252,0.9605263157894737,-0.0008562502470599667,0.0006401375900424542,-0.7064343471137191,-0.7077777689532108,0.0006192624997959819,-0.0005905851608131121,-0.000539810547235967,0.0,-0.0098066499999988,9.80665
6,187.323,1.0,-0.0008571124008826042,0.0006410597661852982,-0.706431325931138,-0.7077807825055579,0.0006306005098701144,-0.0005654475236111199,-0.0005291631993507426,0.0,-0.0098066499999988,9.80665
7,187.389,0.991304347826087,-0.0008579138396473094,0.0006419170003462519,-0.7064285175078936,-0.7077835838359088,0.0006411400685305762,-0.0005420801425501114,-0.0005192656646968715,0.0,-0.0098066499999988,9.80665
8,187.496,1.0,-0.0008578323256091705,0.0006442053930918992,-0.7064238958196801,-0.7077881946465289,0.0006343430983833972,-0.0005745535590685892,-0.0005345775778405361,0.0,-0.012591738599998719,9.80665
9,187.599,0.9869565217391304,-0.0008570798997938066,0.00064684685054305,-0.7064194134033154,-0.7077926668952814,0.0006161428238265255,-0.0006401533316820722,-0.0005646224869415099,0.0,-0.016632078399997943,9.80665
10,187.696,1.0,-0.0008565109659108418,0.0006492092417515428,-0.706415193058379,-0.707796877580501,0.0006037938264086387,-0.0006720907074477941,-0.0005810865080432933,0.0,-0.01878623313252943,9.80665
11,187.806,0.9957081545064378,-0.0008564389635633861,0.0006513744327365612,-0.7064104110392758,-0.7078016482989323,0.0006094527050729348,-0.0005858384505714677,-0.0005512029754491626,0.0,-0.01445397811244849,9.80665
12,187.919,1.0,-0.0008563649975155455,0.0006535986743848071,-0.70640549860147,-0.7078065491278663,0.0006152659167917111,-0.0004972338594167074,-0.0005205044374206506,0.0,-0.010003570682729548,9.80665
13,188.008,0.9956709956709957,-0.0008546234483393975,0.0006540339856235034,-0.7064012425869248,-0.7078107983507629,0.0006064012604689253,-0.0005191393429413449,-0.0005482488243123069,0.0,-0.0098066499999988,9.80665
14,188.199,0.9869565217391304,-0.000851613414161611,0.0006552312391015317,-0.7063924041174678,-0.7078196216618792,0.0005995134153748568,-0.0005727820388314733,-0.0005944523322989271,0.0,-0.010980418918918005,9.80665
15,188.257,0.9956521739130435,-0.0008521765162895626,0.0006562706582929446,-0.7063902603575521,-0.7078217594341729,0.0006191345548857748,-0.0005811082896359386,-0.0005771828097071933,0.0,-0.013176502702701631,9.80665
16,188.289,1.0,-0.0008524871933256737,0.0006568441309502756,-0.7063890775934608,-0.7078229388947487,0.000629960011167656,-0.0005857020831832279,-0.0005676547972427926,0.0,-0.014388135135133456,9.80665
17,188.445,1.0,-0.0008558784975448703,0.0006575081431860427,-0.7063832522209289,-0.7078287476698354,0.0006747212291004197,-0.0006058686980864995,-0.0005285157385515047,0.0,-0.01890152701612786,9.80665
18,188.542,1.0,-0.0008669338543000802,0.0006477591657360125,-0.7063793468802833,-0.7078326403410186,0.00066435536568714,-0.0006077864971068208,-0.0005390267397160641,0.0,-0.015065861491934271,9.80665
19,188.599,0.9646017699115044,-0.0008734303010531398,0.0006420303851725944,-0.7063770519893885,-0.7078349277869714,0.0006582640851246992,-0.0006089134511703082,-0.0005452033074107003,0.0,-0.012811913709676853,9.80665
20,188.7,1.0,-0.0008816325885724653,0.0006355930068802563,-0.7063729478715424,-0.7078390192879079,0.0006406641133731862,-0.0006109540449851843,-0.0005592511049060315,0.0,-0.010791253413652542,9.80665
21,188.807,0.9956331877729258,-0.0008796653230176987,0.0006407332688709756,-0.7063684784245348,-0.7078434772203446,0.0006000971420196873,-0.0006132566353238846,-0.0005841280652086638,0.0,-0.015005356024094363,9.80665
22,188.879,0.9956521739130435,-0.000878341555541594,0.0006441921367525814,-0.7063654709461744,-0.7078464769505822,0.0005727997407350887,-0.0006148060419069354,-0.000600867702047819,0.0,-0.017841013855419825,9.80665
23,189.021,0.991304347826087,-0.000871943392202156,0.0006529057791001584,-0.7063590049532271,-0.7078529291914911,0.0006220107609387548,-0.0006125361338952591,-0.0006182435428768032,0.0,-0.01583851805555485,9.80665
24,189.065,1.0,-0.0008694164274460478,0.0006558777522604607,-0.706356924561116,-0.7078550055421968,0.0006520722395396759,-0.0006110672201473443,-0.0006213795942520457,0.0,-0.014126245833332067,9.80665
25,189.218,0.9957081545064378,-0.000860735575721487,0.0006668858565095283,-0.7063500352730258,-0.7078618805627891,0.0007062483865049601,-0.0006101444203698311,-0.0006072444368591431,0.0,-0.011460783734938465,9.80665
26,189.311,1.0,-0.0008556294133407467,0.0006746593866250024,-0.7063464015722128,-0.7078655052467334,0.0006582852640940988,-0.0006163064874315932,-0.0005584270546089328,0.0,-0.015123508433733996,9.80665
27,189.405,0.9956709956709957,-0.0008504683459881718,0.0006825165030858021,-0.7063427287993481,-0.7078691689057739,0.0006098064091842081,-0.0006225348132789639,-0.0005090847542700232,0.0,-0.018825617269074776,9.80665
28,189.521,0.9869565217391304,-0.0008453470305921835,0.0006907775862264128,-0.7063381347404044,-0.7078737510912786,0.0005982134630903605,-0.000640065359417345,-0.0005282294959761125,0.0,-0.015847546399999773,9.80665
29,189.588,1.0,-0.0008425391611206088,0.0006953764077647666,-0.7063354738508224,-0.707876405047528,0.0005973213189281526,-0.000651375357527283,-0.000548917911946768,0.0,-0.013219364199999487,9.80665
30,189.718,0.9956140350877193,-0.0008404860619239096,0.0007021362392275051,-0.7063300187309449,-0.7078818440769937,0.0006145160235464478,-0.0006637025636155172,-0.0005745152318850166,0.0,-0.011493393799997935,9.80665
31,189.845,1.0,-0.0008451907924781355,0.0007044642596159713,-0.7063241119464794,-0.7078877299288243,0.000668721869587893,-0.0006567355478182443,-0.0005707739223726096,0.0,-0.01647517199999831,9.80665
32,189.925,0.9605263157894737,-0.0008481544022760734,0.0007059307291520132,-0.7063203911373672,-0.7078914375520248,0.0007028672844171524,-0.0006523468764498831,-0.0005684171919710933,0.0,-0.0196132999999988,9.80665
33,190.032,0.9956140350877193,-0.0008456096217440765,0.0007112204604519172,-0.7063149343535498,-0.7078968798444701,0.0006507403738796714,-0.000620597455184907,-0.0005773355541750787,0.0,-0.015416053799998827,9.80665
34,190.076,0.9956140350877193,-0.0008445631699365267,0.0007133956770612226,-0.7063126904424473,-0.7078991177965038,0.0006293050087988465,-0.0006075416184030528,-0.0005810029180720433,0.0,-0.013690083399999504,9.80665
35,190.195,0.9956521739130435,-0.0008417815763863414,0.0007188636208239481,-0.7063066015568109,-0.7079051908309723,0.0005825718306004988,-0.0005803983286023121,-0.000586792773101481,0.0,-0.0098066499999988,9.80665
36,190.345,0.9956521739130435,-0.0008385784990123611,0.0007231664187623416,-0.7062988009143935,-0.7079129731489185,0.0005937947798520317,-0.0005971409007906901,-0.000568329920060934,0.0,-0.0098066499999988,9.80665
37,190.426,0.9956521739130435,-0.0008368911046506229,0.0007254844128368159,-0.706294588522938,-0.7079171755984398,0.0005999328899197245,-0.0006061425616499021,-0.0005586344485636763,0.0,-0.0098066499999988,9.80665
38,190.53,1.0,-0.0008390661160400194,0.0007278939375992908,-0.7062891754443378,-0.7079225711132329,0.0006157967518083735,-0.000613660620292648,-0.0005743783281650377,0.0,-0.0098066499999988,9.80665
39,190.607,0.9957081545064378,-0.0008406764610110146,0.0007296779126638152,-0.7062851676842203,-0.7079265658693777,0.0006275421110913139,-0.0006192268752492956,-0.0005860348544083516,0.0,-0.0098066499999988,9.80665
40,190.689,1.0,-0.0008422488184301239,0.000731477732821119,-0.7062809430355818,-0.707930777014961,0.0006378182587213815,-0.0006266390397213368,-0.0005931521081365686,0.0,-0.0098066499999988,9.80665
41,190.823,0.9956709956709957,-0.0008436867780541132,0.0007336251944121343,-0.7062743834674353,-0.7079373172581294,0.000636895788833499,-0.0006505342139862472,-0.000562745389062912,0.0,-0.0098066499999988,9.80665
42,190.896,0.9869565217391304,-0.0008444701441179279,0.000734795080204254,-0.7062708099713555,-0.7079408802264225,0.0006363932492677124,-0.000663551734294738,-0.0005461805346421953,0.0,-0.0098066499999988,9.80665
43,190.983,1.0,-0.0008448302736476389,0.0007355430775299206,-0.7062662728623632,-0.7079454053711609,0.0006484469503806332,-0.0006664420101460015,-0.0005492833791350036,0.0,-0.011961141287877468,9.80665
44,191.123,0.9912663755458515,-0.0008449483788848977,0.0007362267800221977,-0.7062587478600445,-0.7079529115893839,0.0006780239782528937,-0.0006609359843423594,-0.0005726571107516052,0.0,-0.017161637499998536,9.80665
45,191.226,1.0,-0.0008456669933408291,0.0007364571678149355,-0.706252989873054,-0.7079586546675749,0.000683555794609473,-0.0006523389745132709,-0.0005885269808567179,0.0,-0.0196132999999988,9.80665
46,191.374,0.9605263157894737,-0.0008483187384314374,0.0007360894514290212,-0.706244147929464,-0.707967472397404,0.0006499092360480984,-0.0006283337267123626,-0.0006079302816572819,0.0,-0.0196132999999988,9.80665
47,191.452,1.0,-0.0008497399448004503,0.0007360619390782223,-0.7062394439459972,-0.7079721632399723,0.0006411132562789122,-0.0006220252630995548,-0.0006166812527226273,0.0,-0.01854564052419283,9.80665
48,191.554,0.9956331877729258,-0.0008516569001020699,0.0007364366973844953,-0.7062331837998863,-0.7079784052642065,0.0006516851499327454,-0.0006294433642911062,-0.0006244812248041849,0.0,-0.014512260282257036,9.80665
49,191.668,0.9956521739130435,-0.0008537993795568213,0.0007368555449032711,-0.7062261871659977,-0.7079853816442331,0.0006635007957811472,-0.0006377341832698988,-0.0006331988406600433,0.0,-0.010004364717740561,9.80665
50,191.73,0.991304347826087,-0.0008552111734266837,0.0007371331944501589,-0.7062223924495294,-0.7079891648621555,0.0006654044596611386,-0.0006280518670488795,-0.0006091983315335381,0.0,-0.0098066499999988,9.80665
51,191.825,1.0,-0.000857407549214558,0.0007375653261862896,-0.7062165793719278,-0.7079949602560592,0.000667713515992675,-0.0006113086193282605,-0.0005685602303683128,0.0,-0.0098066499999988,9.80665
52,191.936,1.0,-0.0008599374009620993,0.0007378658105218695,-0.706209843861198,-0.7080016754762907,0.000673872502520679,-0.0005941081314813345,-0.0005285283674020308,0.0,-0.0098066499999988,9.80665
53,192.02,0.9957081545064378,-0.0008616011907489244,0.0007366868233586436,-0.7062051361829493,-0.708006370355386,0.0007023439276963468,-0.0005973458231892438,-0.0005494908394757654,0.0,-0.0098066499999988,9.80665
54,192.095,1.0,-0.0008630867173443037,0.0007356341562486207,-0.7062009328987986,-0.7080105622117213,0.0007277648430317597,-0.0006002366193570193,-0.0005682073323987392,0.0,-0.0098066499999988,9.80665
55,192.234,1.0,-0.0008669816198077632,0.0007334580000335156,-0.7061930534302158,-0.708018418950619,0.000739029292351161,-0.0006041458744808024,-0.0005912048569639247,0.0,-0.0098066499999988,9.80665
56,192.301,0.991304347826087,-0.0008696052271134457,0.0007322618668648882,-0.7061891969948302,-0.7080222634168345,0.0007210287842454339,-0.0006050835783311362,-0.0005946494126414124,0.0,-0.0098066499999988,9.80665
57,192.458,0.9956521739130435,-0.0008763030252629284,0.000728581273381607,-0.706180195820039,-0.7080312367498394,0.0006760938521324963,-0.0006043208187004644,-0.0005941959219539603,0.0,-0.011066942369477013,9.80665
58,192.512,0.9956331877729258,-0.0008793456019380515,0.0007261360829271893,-0.7061771476336856,-0.7080342756359665,0.0006569375299912185,-0.0006000814691978881,-0.0005825860898036603,0.0,-0.013193685742970867,9.80665
59,192.654,1.0,-0.0008873464517133746,0.000719706137658165,-0.7061691320325338,-0.7080422667809675,0.0006065634976937874,-0.000588933550135559,-0.0005520565311862071,0.0,-0.018786233132528408,9.80665
60,192.718,0.9605263157894737,-0.000890517677799087,0.0007186237171346246,-0.7061656415379461,-0.708045745132417,0.0005984379048083702,-0.00059940520863634,-0.0005607407241064481,0.0,-0.0196132999999988,9.80665
61,192.819,0.9956140350877193,-0.0008951871704534973,0.0007183148142140538,-0.7061602272596404,-0.708051139383636,0.000596850297428788,-0.0006278738071541104,-0.000591743326250218,0.0,-0.0196132999999988,9.80665
62,192.921,0.9912280701754386,-0.0008999028957084466,0.0007180028528487247,-0.7061547593746189,-0.7080565870432829,0.0005952469711642594,-0.0006566242729839392,-0.0006230528848508583,0.0,-0.0196132999999988,9.80665
63,193.017,1.0,-0.0009025712184661667,0.0007172403012817114,-0.7061494893247349,-0.7080618402055315,0.0006221521500952711,-0.0006835835900590346,-0.0006196921045972607,0.0,-0.0196132999999988,9.80665
64,193.139,0.991304347826087,-0.0009059143527418094,0.0007162585456364493,-0.7061427886221053,-0.7080685195048712,0.0006571124398560258,-0.0007178416864315871,-0.0006145334602736926,0.0,-0.0196132999999988,9.80665
65,193.254,0.9956709956709957,-0.0009091598694981586,0.0007147360685206841,-0.7061366034917029,-0.7080746851151609,0.0006767174887777601,-0.0006754646506945954,-0.0006238424747969101,0.0,-0.0196132999999988,9.80665
66,193.353,0.9956896551724138,-0.000911993857175211,0.0007131717600400857,-0.7061313346007396,-0.7080799374801773,0.0006879234895012906,-0.0006072606059655144,-0.0006378770817116109,0.0,-0.0196132999999988,9.80665
67,193.39,0.9957081545064378,-0.0009130530242868358,0.0007125871194968322,-0.7061293654192684,-0.7080819004852844,0.0006921115907817987,-0.0005817702054102213,-0.0006431223388413434,0.0,-0.0196132999999988,9.80665
68,193.552,1.0,-0.0009184262063043334,0.000709248938415727,-0.7061209472711745,-0.7080902916825312,0.0007072371216490868,-0.0005846658283844601,-0.0006326583917252713,0.0,-0.0196132999999988,9.80665
69,193.632,0.9956709956709957,-0.0009211834387132379,0.0007074906262673998,-0.7061168188980039,-0.7080944067595673,0.0007142533892765656,-0.0006022512847557703,-0.0006227743024937786,0.0,-0.0196132999999988,9.80665
70,193.678,0.991304347826087,-0.0009227702115679919,0.0007065024076701138,-0.7061144664451345,-0.7080967515982929,0.000717519356709609,-0.0006122393598520321,-0.0006171033434306381,0.0,-0.019535159362548227,9.80665
71,193.808,0.9956331877729258,-0.000927339388508699,0.0007051278581491968,-0.7061091463494719,-0.7081020521114173,0.0006789756721753872,-0.0006327841758349567,-0.0006018471943522499,0.0,-0.014456017928285554,9.80665
72,193.92,0.9956331877729258,-0.0009312759101806926,0.0007039436308696376,-0.7061045628824393,-0.7081066187073399,0.0006457688054997504,-0.0006504843249894761,-0.000588703435146254,0.0,-0.010080142231074687,9.80665
73,194.012,1.0,-0.0009352521603397055,0.0007000757143573692,-0.7061001333283287,-0.7081110342244773,0.0006277357110282365,-0.0006665483670660788,-0.0005662456331550152,0.0,-0.0098066499999988,9.80665
74,194.114,0.9605263157894737,-0.0009397284214051209,0.0006955230315886145,-0.7060951616234233,-0.7081159903503479,0.0006085865126630958,-0.000684497706371411,-0.0005402820527059805,0.0,-0.0098066499999988,9.80665
75,194.263,1.0,-0.0009434225139484346,0.0006919243808494186,-0.7060864055324968,-0.7081247199623799,0.0006286528277477035,-0.0005978623762660102,-0.0005651978077367013,0.0,-0.0098066499999988,9.80665
76,194.339,0.9912663755458515,-0.0009442726901097523,0.0006911981582526326,-0.7060813964561672,-0.7081297141800235,0.0006563500440236021,-0.0005126500294344181,-0.0006007496810828667,0.0,-0.0098066499999988,9.80665
77,194.451,1.0,-0.000947263557563727,0.0006908086742145743,-0.7060753784643024,-0.708135711090588,0.0006728868204939725,-0.000523267292762817,-0.0006064394908427293,0.0,-0.0098066499999988,9.80665
78,194.498,0.991304347826087,-0.0009490460149332101,0.0006908517893425813,-0.7060732668818471,-0.7081378140739407,0.000672458928752819,-0.00056904845445513,-0.0005946560722679418,0.0,-0.0098066499999988,9.80665
79,194.57,0.9956709956709957,-0.0009517765879247589,0.0006909178380493158,-0.7060700321172348,-0.7081410356654596,0.0006718034350216902,-0.0006391812978986805,-0.0005766048778554995,0.0,-0.0098066499999988,9.80665
80,194.736,0.9957081545064378,-0.0009573235624342779,0.0006901194696324215,-0.7060626064856708,-0.7081484328406578,0.000672299019061029,-0.0007127051707357158,-0.0005684081441722816,0.0,-0.0098066499999988,9.80665
81,194.838,0.9957081545064378,-0.0009599194016966125,0.0006885969380882357,-0.706058078809,-0.7081529451108318,0.0006747820670716466,-0.0006621688324958057,-0.000599651825148614,0.0,-0.0098066499999988,9.80665
82,194.951,1.0,-0.0009623050229989854,0.0006869018814349284,-0.7060529321870604,-0.7081580749069476,0.0006817596780798259,-0.0006195743449956151,-0.0006200786835203558,0.0,-0.010791253413653548,9.80665
83,195.041,0.9869565217391304,-0.0009628308883315714,0.0006855284813379055,-0.7060484667791501,-0.7081625275926594,0.0006991670227115858,-0.0006231941111165147,-0.0005965761762733265,0.0,-0.014335825702809973,9.80665
84,195.127,1.0,-0.0009633333818715982,0.0006842161212451947,-0.7060441998338136,-0.7081667823812285,0.000715800707581936,-0.0006266529987431526,-0.0005741182249039403,0.0,-0.01772286144578204,9.80665
85,195.194,0.9956140350877193,-0.0009643242570824841,0.0006833356988629511,-0.7060409327919052,-0.7081700391345878,0.000726381467054207,-0.0006266268630200404,-0.0005625452335174388,0.0,-0.018870963944222736,9.80665
86,195.306,1.0,-0.0009685119588940386,0.0006824636177568557,-0.7060357130553491,-0.7081752382196601,0.0007340260113467029,-0.0006150927631633411,-0.0005682140790052212,0.0,-0.014495088247010261,9.80665
87,195.418,1.0,-0.0009726996607055921,0.0006815915366507603,-0.706030493318793,-0.7081804373047325,0.0007416705556391969,-0.0006035586633066448,-0.0005738829244930023,0.0,-0.010119212549798898,9.80665
88,195.48,1.0,-0.0009746739987002027,0.0006811229319358052,-0.7060275293398989,-0.7081833899751561,0.0007303775486673608,-0.000623351225278812,-0.0005973975004375993,0.0,-0.011916447211154218,9.80665
89,195.67,1.0,-0.0009805682787550586,0.0006796933113913301,-0.7060184123638241,-0.708192472352356,0.000688721646603005,-0.0006958905028168139,-0.0006787092615089605,0.0,-0.019339807768922912,9.80665
90,195.74,1.0,-0.0009833872886314925,0.0006794360491639873,-0.7060150001191605,-0.7081958703967987,0.0006837718706319929,-0.0006877528847172738,-0.00067807702033455,0.0,-0.0196132999999988,9.80665
91,195.812,1.0,-0.0009863608339917228,0.0006792022297391222,-0.7060114842836505,-0.7081993714602794,0.0006798689165264805,-0.0006753984643763501,-0.0006739308058946234,0.0,-0.0196132999999988,9.80665
92,195.913,1.0,-0.000990532057344268,0.0006788742330459088,-0.7060065523477267,-0.708204282674329,0.0006743939392395814,-0.0006580679580647774,-0.0006681145884163932,0.0,-0.0196132999999988,9.80665
93,196.024,1.0,-0.0009923423787938804,0.0006787725801410192,-0.7060009598136778,-0.708209855329609,0.0006878706369930373,-0.0006560715590053657,-0.0006719495244984201,0.0,-0.0196132999999988,9.80665
94,196.173,1.0,-0.0009942785141607575,0.0006786822139083531,-0.7059934220398836,-0.7082173669347509,0.000709432149975098,-0.0006564277300783471,-0.0006789184037016658,0.0,-0.0196132999999988,9.80665
95,196.275,1.0,-0.000996745145854862,0.0006779995251120582,-0.705988068469448,-0.7082227007839209,0.0006930887975022034,-0.000665960989597186,-0.0006900445048932022,0.0,-0.015826179065039202,9.80665
96,196.362,1.0,-0.0009989207615533607,0.0006773782137852708,-0.7059834900286627,-0.7082272622900502,0.0006771940719979865,-0.0006746761245289593,-0.0006999338445124952,0.0,-0.012357973577234489,9.80665
97,196.438,1.0,-0.001000993201614129,0.0006769232915577534,-0.7059795809243979,-0.708231156536692,0.0006687679789029063,-0.0006779291415587068,-0.0007035387000069019,0.0,-0.010277369199998818,9.80665
98,196.591,1.0,-0.00100701103756163,0.0006769505049116025,-0.7059726824620447,-0.7082380243997498,0.0007104168552905377,-0.000637663153465832,-0.0006567454221658345,0.0,-0.016279038999999603,9.80665
99,196.649,1.0,-0.0010092923087051265,0.0006769608210849571,-0.705970067358669,-0.7082406279033926,0.0007262053182348645,-0.0006223989226855304,-0.00063900679396465,0.0,-0.018554181799999316,9.80665
100,196.714,1.0,-0.001011446553336788,0.0006766458820822331,-0.7059673061247739,-0.7082433775019967,0.0007324323020875451,-0.0006232425817288482,-0.0006264707222580897,0.0,-0.018122689199998373,9.80665
101,196.81,1.0,-0.0010142059813336788,0.0006758381144377226,-0.7059634058514626,-0.7082472620226801,0.0007295957095921035,-0.0006433253311552139,-0.0006156620457768423,0.0,-0.01435693559999823,9.80665
102,196.887,1.0,-0.0010164192725395183,0.0006751902174728548,-0.705960277507244,-0.7082503777319781,0.0007273205260280516,-0.0006594333697576103,-0.0006069925865158423,0.0,-0.0113364873999983,9.80665
103,197.019,1.0,-0.001019795334850053,0.0006742309187247667,-0.7059539573294314,-0.7082566734428765,0.0007418854965362728,-0.0006677623328287156,-0.0006223116489127314,0.0,-0.013454723799999495,9.80665
104,197.063,1.0,-0.0010208622377126237,0.000673932313367022,-0.7059517167870839,-0.7082589054372024,0.0007493216556031258,-0.0006678429266903551,-0.0006316368514671922,0.0,-0.015180694199998818,9.80665
105,197.265,0.9956521739130435,-0.001025926244095734,0.0006733883744120903,-0.7059416842611412,-0.7082688983498411,0.0007667956744836443,-0.0006676502662629216,-0.0006811798478762398,0.0,-0.016136041633465055,9.80665
106,197.347,0.991304347826087,-0.001028067462968482,0.0006735937741811068,-0.705937742359147,-0.7082728239804275,0.0007652999671821691,-0.0006672820585141649,-0.0007047610031811948,0.0,-0.012932275498006088,9.80665
107,197.464,1.0,-0.0010311156090951532,0.0006742562626212262,-0.7059317010393126,-0.7082788402792792,0.0007541902629804812,-0.0006645097092278917,-0.000707057108169358,0.0,-0.0098066499999988,9.80665
108,197.54,1.0,-0.0010330857593638125,0.0006752054377574175,-0.7059271912367147,-0.7082833312945985,0.0007343676604122748,-0.0006595530257606501,-0.0006645178537304017,0.0,-0.0098066499999988,9.80665
109,197.625,1.0,-0.0010352892169011292,0.0006762670152123683,-0.705922147378546,-0.7082883541406795,0.0007121976443820399,-0.0006540093666196553,-0.000616941056002613,0.0,-0.0098066499999988,9.80665
110,197.682,1.0,-0.0010368007503567928,0.0006767970826063715,-0.7059188518284145,-0.7082916359827621,0.0007005802467574542,-0.0006513404341603744,-0.0005964981503438973,0.0,-0.01030464394531041,9.80665
111,197.804,1.0,-0.0010402816932300243,0.0006766145044141864,-0.7059124270101217,-0.7082980342313009,0.000699255570452806,-0.0006532241741297184,-0.0006357735517212829,0.0,-0.014978125585935947,9.80665
112,197.941,1.0,-0.0010441183665913787,0.0006764816833545725,-0.705905222323105,-0.7083052091181156,0.000697394427602213,-0.0006547545704831079,-0.0006733747580426331,0.0,-0.0196132999999988,9.80665
113,198.043,0.9347826086956522,-0.0010465680419844503,0.0006767893446159007,-0.7058999149369041,-0.7083104945218326,0.0006939052336058945,-0.0006526004380650402,-0.0006647540652471406,0.0,-0.0196132999999988,9.80665
114,198.125,0.9260869565217391,-0.0010485373888690763,0.0006770366801397135,-0.705895648214664,-0.7083147435718796,0.0006911001952951289,-0.0006508686845524763,-0.0006578237043723338,0.0,-0.0196132999999988,9.80665
115,198.224,1.0,-0.00105114649849939,0.0006772635873297004,-0.7058910801527146,-0.7083192919348688,0.0006982396109960977,-0.0006456931247375905,-0.0006406736122444266,0.0,-0.017730423199998728,9.80665
116,198.353,0.9956521739130435,-0.0010548667293214188,0.0006774599805828807,-0.7058859352864334,-0.7083244133991575,0.0007221153951250056,-0.0006346784231718613,-0.000606166795594612,0.0,-0.012670191799997978,9.80665
117,198.419,0.9956521739130435,-0.0010567701032303638,0.0006775604608519497,-0.7058833030292662,-0.7083270336832123,0.000734330912586306,-0.0006290429944638144,-0.000588512145215639,0.0,-0.010081236199997881,9.80665
118,198.512,1.0,-0.0010604573008762756,0.0006778274311270462,-0.7058783491280234,-0.7083319646259564,0.0007272635616741519,-0.0006354339914243106,-0.0006128131551380615,0.0,-0.0098066499999988,9.80665
119,198.608,0.8529411764705882,-0.0010643478958406321,0.0006781135482733107,-0.7058731308331929,-0.708337158710231,0.0007179281911467789,-0.0006432353241997675,-0.0006420300550540375,0.0,-0.0098066499999988,9.80665
120,198.693,0.8826086956521739,-0.0010676639655942382,0.0006782104100409599,-0.7058688734423538,-0.7083413962246629,0.0007183127054304352,-0.0006479746662080289,-0.0006517461533803721,0.0,-0.0098066499999988,9.80665
121,198.848,1.0,-0.0010731142878796821,0.0006776618273520227,-0.7058627922800005,-0.7083474483722023,0.0007591058915750187,-0.0006465683327405715,-0.0005945976092789344,0.0,-0.0098066499999988,9.80665
122,198.919,0.9650655021834061,-0.0010756108871201114,0.000677410541088058,-0.7058600067153097,-0.7083502206462365,0.0007777918026476982,-0.0006459241412812845,-0.0005684198890776315,0.0,-0.0098066499999988,9.80665
123,198.995,1.0,-0.0010764686178975148,0.0006775612155106258,-0.7058560245629161,-0.7083541872820834,0.0007650314088498539,-0.0006575574856822048,-0.0005843809887715294,0.0,-0.012519952371540188,9.80665
124,199.08,0.9912663755458515,-0.0010772539578631105,0.000677769963223869,-0.7058514749348068,-0.7083587194325017,0.0007476191772166398,-0.0006717497937513805,-0.0006064485690442376,0.0,-0.015814676679841076,9.80665
125,199.244,0.8658008658008658,-0.0010793666622385789,0.0006780236573313335,-0.7058427044223942,-0.708367455345417,0.0007316960261697064,-0.0006767154449641878,-0.0006549171247822525,0.0,-0.01701394698795046,9.80665
126,199.338,0.8535564853556485,-0.0010810860840205618,0.0006780422013570456,-0.7058376838840635,-0.708372455305228,0.0007376096627009232,-0.0006604830049030694,-0.0006877116365246024,0.0,-0.013311838152609255,9.80665
127,199.429,0.9102564102564102,-0.001036995057765656,0.0006683695586784779,-0.7058328746223839,-0.7083771313313703,0.0004934259708958859,-0.00014061144366619505,-0.000713583112228637,0.0,-0.0098066499999988,9.80665
128,199.546,1.0,0.0016375658239620033,0.0001014928399651222,-0.7058296118866592,-0.7083737395973377,-0.014118866261327611,0.029372787663247378,-0.0004106322559528095,0.0,-0.0098066499999988,9.80665
129,199.661,0.6137339055793991,0.004266407716258849,-0.00045569367842843763,-0.7058264049241947,-0.7083704058416647,-0.02848137572035304,0.05838168422132954,-0.00011286004679275966,0.0,-0.0098066499999988,9.80665
130,199.714,0.5855855855855856,0.004909689527538421,-0.0007047629767714148,-0.7058210641186013,-0.7083723672740668,-0.023447238549588946,0.05019947423040664,-0.0002811835028697215,0.0,-0.008355265799998532,10.030163166800037
131,199.831,0.6515837104072398,0.005787284063000028,-0.0012472246093853038,-0.7058055865379842,-0.7083800363371904,-0.0012096513956792107,0.01156344842910887,-0.0009444553423672724,0.0,-0.0037657535999988277,10.736948045599977
132,199.929,0.6289592760180995,0.006468887396555522,-0.0016823392994498754,-0.7057927692905744,-0.7083866840374432,0.0170831847637894,-0.020285942733288518,-0.0014778510220348293,0.0,1.3861191269584114e-15,11.318521617200007
133,200.016,0.6710526315789473,0.004795258217440427,-0.0012481208147320142,-0.7057876495979656,-0.7084021324377184,0.019110754668712586,-0.02672553738951673,-0.0010068605085834903,0.0,1.3948958029534233e-15,11.3901886154
134,200.132,0.5657370517928287,0.0025637526452864205,-0.0006691628351080576,-0.7057808233411538,-0.7084227303047521,0.021814181208610825,-0.03531166359782312,-0.00037887315731488405,0.0,1.4065980376134417e-15,11.48574461300001
135,200.22,0.5737051792828686,0.001015479106574938,-0.0002876645938926473,-0.7057861042955376,-0.7084225425901608,0.02166268975287658,-0.03543194393068504,0.00028283740207559534,0.0,1.4061801006612963e-15,11.482331898799995
136,200.277,0.546875,0.00011063290661785159,-7.967759445779126e-05,-0.7057966149248696,-0.7084117016322983,0.020071681216359296,-0.031176105886698193,0.0008370560593902551,0.0,1.3996084023793177e-15,11.428669910000005
137,200.399,0.6190476190476191,-0.0018260554511856687,0.0003654875622274846,-0.7058191113595801,-0.7083884981786274,0.016666364699601893,-0.02206711919605669,0.002023278448730792,0.0,1.3855426621968322e-15,11.313814425199993
138,200.508,0.6952380952380952,-0.003046678284737933,0.0005342523411894315,-0.7058153576291752,-0.7083883992477946,0.01298636137704544,-0.015762373254121848,0.0006653337581997455,0.0,1.3708968036028722e-15,11.194221914084485
139,200.615,0.7072072072072072,-0.004071945654623797,0.0006222244738691048,-0.7058035785849436,-0.7083953033263322,0.009157537749394897,-0.010195521462899952,-0.0014881303450840406,0.0,1.3558142210792117e-15,11.071063281455373
140,200.748,0.6570247933884298,-0.0047176605228601304,0.0006305342193056262,-0.705830263754284,-0.7083648161059037,0.006679757668728612,-0.007540817313473455,-0.00020841702582766425,0.0,1.336305534899079e-15,10.911762769718313
141,200.823,0.6828193832599119,-0.00499972053489396,0.0006220311004369716,-0.705850706311561,-0.7083425242150077,0.005580316612523088,-0.0066005132557875705,0.0010296795976310219,0.0,1.3252050360790939e-15,10.821120318133792
142,200.922,0.6651982378854625,-0.005372039750778491,0.0006108069835303512,-0.7058776904871665,-0.7083130989190247,0.004129054418332278,-0.005359311899642618,0.002663967140595943,0.0,1.310552377636718e-15,10.701472282042264
143,200.999,0.6458333333333334,-0.0055265291086399595,0.000588782093756896,-0.7058748888255295,-0.7083146897451096,0.003527466589658624,-0.004168346350305925,0.0023460910736543025,0.0,1.299219798370861e-15,10.60893474980238
144,201.118,0.5333333333333333,-0.005759717950604306,0.0005541957117235863,-0.7058695785750864,-0.7083181570505034,0.0026194658075190643,-0.0023184663214879195,0.0017893424703051255,0.0,1.2817084470413286e-15,10.465943714822135
145,201.22,0.5358851674641149,-0.00590045057142328,0.0005057744301479744,-0.7058732014830611,-0.7083134504804591,0.0021124046956341033,-0.0011074095518018045,0.001395476571529109,0.0,1.2647966058708304e-15,10.32784805179282
146,201.324,0.6171428571428571,-0.0059612010464989975,0.00043013641165600954,-0.7058883315994993,-0.7082979093632488,0.0019748444999178345,-0.0003966073777137713,0.0011104902644934358,0.0,1.2448921121111904e-15,10.16531552589639
147,201.439,0.7153284671532847,-0.0060156735694531826,0.00034542764221881896,-0.7059033824586481,-0.708282503208433,0.0018216592388743795,0.00037899960919905544,0.0007693580032446178,0.0,1.223024589921487e-15,9.98675365642571
148,201.524,0.7651515151515151,-0.005967162121241454,0.00027533547582369927,-0.7059027700159586,-0.7082835460996628,0.0017009200977094125,0.0008797640719378399,0.00033550290250586887,0.0,1.2078557338709472e-15,9.862890546987945
149,201.617,0.6717557251908397,-0.005914084889668633,0.00019864639965023136,-0.705902099931604,-0.7082846871453614,0.0015688172726701232,0.0014276593076401603,-0.0001391856194787811,0.0,1.1912592207803602e-15,9.727369733132536
150,201.719,0.6854838709677419,-0.005812506893146663,0.00012619444040496536,-0.706500351134676,-0.7076862827708328,0.0008347288444638006,0.0017908736374229197,-0.000550211997702722,0.0,1.1742971503168672e-15,9.5888639168
151,201.809,0.6785714285714286,-0.005668218418903034,7.69620063173856e-05,-0.7077832443823019,-0.7064024102000246,-0.0005556871537119924,0.0018117312071844946,-0.0007747313953004904,0.0,1.1608943446101966e-15,9.479421702799995
152,201.871,0.7053571428571429,-0.005568819692201852,4.3046329501492166e-05,-0.7086670152862221,-0.7055179646512455,-0.0015135292857887958,0.0018260997552424706,-0.0009294003136456435,0.0,1.1516613006789334e-15,9.40402817759998
153,202.054,0.775,-0.0061227885430405835,-0.0002185043875335381,-0.7094528210443316,-0.7047259735961869,0.00080085251598616,0.0006976660531815748,-0.0008625123459967664,0.0,1.1251642809177252e-15,9.187663591666661
154,202.151,0.8359375,-0.00661447035055706,-0.0003948742193578771,-0.7094433204447861,-0.7047312154066827,0.0032293120813040987,-0.00017412087052241202,-0.0007047239535798474,0.0,1.1112959570404951e-15,9.074420133333323
155,202.239,0.7246376811594203,-0.006402352533082439,-0.0004537202451259724,-0.7094392414624524,-0.7047370954266291,3.3352584127158916e-05,0.002566757729284754,-0.0008806918584366291,0.0,1.0962515697815923e-15,8.95157338870967
156,202.322,0.75177304964539,-0.005912588088210299,-0.0004646971977547225,-0.7094373925804206,-0.7047431363326423,-0.0053574395020526445,0.006706422062228637,-0.0011871210381580424,0.0,1.0809779654635939e-15,8.826854944758056
157,202.396,0.7801418439716312,-0.00547593063133643,-0.0004744838784116785,-0.709435744179573,-0.7047485222006541,-0.010163687868043319,0.010397207130153773,-0.0014603229574276816,0.0,1.0673605351077909e-15,8.715660187500012
158,202.517,0.7464788732394366,-0.004563027036590366,-0.000463351998183474,-0.7094338380829435,-0.7047564442240384,-0.011070335209369618,0.011258684471249555,-0.0006268244236707343,0.0,1.055603055908121e-15,8.619653083999998
159,202.621,0.7894736842105263,-0.0037194951410641965,-0.00044575091579994377,-0.7094324334470083,-0.7047629913491877,-0.009791388243436606,0.010467519089579455,0.00046858213841932694,0.0,1.0486086168009834e-15,8.56253915439999
160,202.678,0.7647058823529411,-0.003258320501151336,-0.00043609982014410537,-0.7094316804576126,-0.7047665371171469,-0.009103116095066073,0.010038469977676854,0.0010615294305607811,0.0,1.044928850072917e-15,8.532491578800004
161,202.811,0.7478991596638656,-0.002331954526170422,-0.0004130123824607491,-0.7094321264107212,-0.7047692493700048,-0.00915519922971726,0.009634551197290377,0.0014755570311099733,0.0,1.056429322066383e-15,8.62640005920001
162,202.914,0.8214285714285714,-0.0016145432823884015,-0.0003951326374879291,-0.709432471772903,-0.7047713498365038,-0.009195534288883207,0.009321741916239277,0.0017961949473246758,0.0,1.0653357026327492e-15,8.699126175599996
163,202.999,0.7946428571428571,-0.0011342046909306256,-0.0003820408575521463,-0.7094250658643626,-0.7047795877720453,-0.00862478247284887,0.008304249271750413,0.0007371067758649161,0.0,1.0754526591984298e-15,8.781737395200002
164,203.126,0.8482142857142857,-0.0004466557222986764,-0.0003629289219548113,-0.7094119257777152,-0.7047936509549778,-0.007609060022979877,0.00657914501614852,-0.0012023896602915624,0.0,1.0913150478878305e-15,8.911263628400013
165,203.198,0.7053571428571429,-0.00010760495087751611,-0.00035552871971743797,-0.709406498905487,-0.704799430995113,-0.006577456533255371,0.005450413193399399,-0.0020000029650268348,0.0,1.0999960100623704e-15,8.982149063944236
166,203.319,0.7964601769911505,0.00025509790589102715,-0.0003571113394359974,-0.7094056337870667,-0.704800195140175,-0.0029836704108524726,0.0029383758634916506,-0.0021080986329491576,0.0,1.1133119249982026e-15,9.090881760956169
167,203.398,0.7521367521367521,0.0004919039032854259,-0.0003581446200786935,-0.7094050689576847,-0.7048006940448023,-0.0006373141821756001,0.001298285375369643,-0.0021786734905182956,0.0,1.1220057868158143e-15,9.16187253007968
168,203.515,0.7863247863247863,0.0006276206525682549,-0.0003173640572166996,-0.7094034508750735,-0.7048022716980518,0.0004956234843997275,0.0001357082412186012,-0.0011002896542953806,0.0,1.133279946191005e-15,9.253933027710836
169,203.606,0.8,0.00067551638044657,-0.0002742981002009135,-0.7094019827517388,-0.704803723718942,0.0007486623874584972,-0.00042886617822558053,5.5707837305373365e-05,0.0,1.141619199644545e-15,9.322028199799197
170,203.794,0.775,0.0006047257519048617,-0.00020023120636303068,-0.7094105926600501,-0.7047951403497846,0.0005932341977022026,-0.002600711993407734,0.00018034500419149854,0.0,1.1559943941367924e-15,9.43941057080001
171,203.821,0.7747747747747747,0.0005797657927924804,-0.0001908929027507116,-0.7094128438986294,-0.7047928981348823,0.0005118063176050618,-0.0030002551516518806,9.692483581244006e-07,0.0,1.1578102581357597e-15,9.454238225600003
172,203.916,0.8378378378378378,0.0004919437144340598,-0.0001580359085592028,-0.7094207649232601,-0.7047850088602257,0.00022530081355942968,-0.004406055152881954,-0.0006301676703151597,0.0,1.1641994092432402e-15,9.506409603600002
173,204.021,0.8035714285714286,0.0003030013157156412,-0.00011573141616296744,-0.7094220544738745,-0.7047837878147388,0.0008019529583592552,-0.004292404869074151,-0.001611381820662696,0.0,1.1694368557194896e-15,9.54917659960159
174,204.128,0.7857142857142857,9.950379088417361e-05,-7.190694997658855e-05,-0.7094224783524865,-0.7047834377306287,0.001496117127469239,-0.003977748459628053,-0.0026451101168558713,0.0,1.174556521181704e-15,9.590981840637445
175,204.242,0.8545454545454545,-0.00015852983048172703,-3.9969061437395e-05,-0.7094323654443856,-0.7047734490281563,0.0025505751505096987,-0.0045688763040165874,-0.002460409543031969,0.0,1.1788009838396475e-15,9.625640508433733
176,204.34,0.8181818181818182,-0.00040803372679726856,-2.2422213465913386e-05,-0.7094472017528634,-0.7047584043257634,0.0036685135852299695,-0.00569918923955197,-0.001437915549389023,0.0,1.1816370052570457e-15,9.648798380722894
177,204.415,0.8301886792452831,-0.0005989805862223732,-8.993503283660888e-06,-0.7094585560705758,-0.7047468905229117,0.004524078713842177,-0.006564224649400229,-0.0006553946358869925,0.0,1.1838074298111765e-15,9.666521242168676
178,204.479,0.7830188679245284,-0.0007689419364202455,1.7300469367268712e-05,-0.7094542984585882,-0.7047509707103182,0.004178405284926271,-0.0064425335684603095,-0.0006592068440154222,0.0,1.1854087208155582e-15,9.679596775502013
179,204.62,0.7033898305084746,-0.0011469571139060084,8.277159325318823e-05,-0.7094378277528604,-0.7047670295144844,0.0028699148468761533,-0.005737271236562386,-0.001009037481605985,0.0,1.18880905261703e-15,9.70736259176707
180,204.671,0.8888888888888888,-0.0012836860078901963,0.00010645263806298471,-0.7094318702635545,-0.704772838018119,0.002396631071411301,-0.005482176350556801,-0.0011355719675429747,0.0,1.1900389598643706e-15,9.717405546586345
181,204.837,0.8666666666666667,-0.0017501917498784702,8.40177063247449e-05,-0.7094293917779504,-0.7047742565830392,0.00400749499727766,-0.00464147957509377,0.00010273217704086473,0.0,1.1924705655653785e-15,9.737261113944223
182,204.919,0.7864077669902912,-0.0019809636615167573,7.140875334686695e-05,-0.7094284269190804,-0.7047746890458336,0.004851567495866795,-0.0042260362659079145,0.000739739493066332,0.0,1.1936476101482804e-15,9.7468724123506
183,204.993,0.7864077669902912,-0.002138839384335872,5.5387984610266376e-05,-0.7094338461968817,-0.704768747895865,0.004020642507747096,-0.003963099352911526,0.0012483345256539605,0.0,1.1943940286642665e-15,9.752967382071713
184,205.081,0.7627118644067796,-0.0023193212376377372,3.5667148633382555e-05,-0.7094411974107135,-0.7047607701072504,0.0028029444749909527,-0.003666558208322523,0.0018435984954749541,0.0,1.1952361418617896e-15,9.75984375816733
185,205.184,0.8773584905660378,-0.0025320058241298134,1.6469679020680142e-05,-0.7094502091931808,-0.7047510065985463,0.0015517255361841274,-0.0033792218043138668,0.0025056371237132777,0.0,1.1961930886771568e-15,9.767657821912351
186,205.357,0.8490566037735849,-0.002928301590221271,8.971413194559788e-05,-0.7094764111950137,-0.7047230437467068,0.004176031527261552,-0.004519084555679455,0.0026756208334340744,0.0,1.1970208476724494e-15,9.774416987051794
187,205.418,0.8275862068965517,-0.003068035935490528,0.00011554021072259471,-0.7094856500511513,-0.7047131840128212,0.005101364853595308,-0.004921001479571411,0.002735557285994593,0.0,1.1973127164511365e-15,9.776800276494024
188,205.51,0.8317757009345794,-0.003217028012946607,9.208547539519364e-05,-0.7094775532635005,-0.7047206608768489,0.005249569820890946,-0.004052749815318531,0.002264019173390503,0.0,1.1977560249457253e-15,9.78042016506024
189,205.597,0.822429906542056,-0.0033499920256236,6.189121557488574e-05,-0.7094670672814349,-0.7047306012700333,0.005229529296328502,-0.0030423377371246157,0.0017459434905952869,0.0,1.1981756403595238e-15,9.78384658493976
190,205.722,0.8691588785046729,-0.0034725511087062384,1.9805679339664395e-05,-0.7094578798692112,-0.7047392828299008,0.003946310222148575,-0.0017197356596588122,0.001054709564894385,0.0,1.1985663167792674e-15,9.7870367
191,205.809,0.9345794392523364,-0.003470109181464347,-7.824016274419344e-06,-0.7094590175892987,-0.704738149281277,0.0014459289275109703,-0.0009646674231626074,0.0006416818096768101,0.0,1.1985663167792674e-15,9.7870367
192,205.917,0.9272727272727272,-0.0034670778235088946,-4.212294876087372e-05,-0.7094604299314764,-0.7047367421174681,-0.0016579926796258734,-2.734133647751052e-05,0.00012895769975146084,0.0,1.1985663167792674e-15,9.7870367
193,205.999,0.9642857142857143,-0.0034045236010210424,-5.5861834267461496e-05,-0.7094602396817092,-0.7047372307287618,-0.002137661552987988,0.00014988052216358247,-0.0002348357157315969,0.0,1.1989073917632006e-15,9.7898217886
194,206.088,0.8376068376068376,-0.0033264975854870238,-6.870475453155888e-05,-0.7094598208810109,-0.7047380228707968,-0.002342648245394222,0.00025236021261661846,-0.0006253971927799134,0.0,1.1993349364613704e-15,9.793312956
195,206.205,0.8230088495575221,-0.0032232484627598606,-7.991974474454164e-05,-0.7094604308024466,-0.7047378919880583,-0.002466467336618958,0.0003374892118084977,-0.0012093849660527818,0.0,1.1998954516050385e-15,9.797889909486166
196,206.305,0.8584070796460177,-0.003133076572428853,-7.335592057420196e-05,-0.7094642583126683,-0.704734440413074,-0.0021573161423802598,0.0002689627360408967,-0.0019095255772439788,0.0,1.2003701426142422e-15,9.801766055731225
197,206.399,0.9099099099099099,-0.0030483149955177063,-6.718592585408268e-05,-0.7094678561722768,-0.7047311959325887,-0.001866714019795885,0.00020454784881935217,-0.0025676577517637,0.0,1.2008163521628938e-15,9.805409633201581
198,206.506,0.8648648648648649,-0.0029359844281447215,-5.989445092813169e-05,-0.7094657310994025,-0.7047338054972083,-0.0014913843183275324,0.00027234529472713724,-0.002740770856279044,0.0,1.2009682532858392e-15,9.80665
199,206.568,0.8305084745762712,-0.0028669779631719356,-5.5603181943205256e-05,-0.7094629618684558,-0.7047368757939297,-0.0012628925610295915,0.00034651872040066136,-0.002698667159664531,0.0,1.2009682532858392e-15,9.80665
200,206.715,0.8846153846153846,-0.0026990292249323973,-5.083745998874741e-05,-0.7094568326803993,-0.7047437147533225,-0.0010375288197299547,0.0005615322278386183,-0.0024404481715376734,0.0,1.2009682532858392e-15,9.80665
201,206.759,0.875,-0.002644756562302282,-5.440272353292768e-05,-0.7094554010042907,-0.7047453551440198,-0.0012620635224079137,0.000662022298314093,-0.002216977317888647,0.0,1.2009682532858392e-15,9.80665
202,206.911,0.8703703703703703,-0.002457269182307246,-6.671908850373832e-05,-0.7094504552140974,-0.7047510219482469,-0.0020377288589321536,0.0010091698145022676,-0.0014449870961916304,0.0,1.2009682532858392e-15,9.80665
203,206.968,0.8691588785046729,-0.002385196645806954,-7.01191133572362e-05,-0.7094423520517469,-0.704759420431917,-0.0021121595799922965,0.0010933048883452919,-0.0020362116256727424,0.0,1.2009682532858392e-15,9.80665
204,207.105,0.8691588785046729,-0.00221016697605794,-7.704630143819676e-05,-0.709416493251183,-0.7047860145169335,-0.0020699590481817747,0.0012484894627705126,-0.004356873604003213,0.0,1.2009682532858392e-15,9.80665
205,207.184,0.7719298245614035,-0.0021126266408047862,-8.244358131086756e-05,-0.7094026695268678,-0.7048002423507054,-0.00197997513413429,0.0012986744171939772,-0.005510007914155719,0.0,1.2009682532858392e-15,9.80665
206,207.318,0.8288288288288288,-0.0020171214764588283,-0.00012054760818985766,-0.7094016657022185,-0.7048015212226684,-0.00047253098338825763,0.0005727375391869933,-0.003646898660808596,0.0,1.2009682532858392e-15,9.80665
207,207.382,0.8108108108108109,-0.0019715070696070375,-0.0001387465464007146,-0.7094011862635801,-0.7048021320271879,0.0002474423423410332,0.0002260214183479126,-0.002757055435329568,0.0,1.2009682532858392e-15,9.80665
208,207.514,0.7961165048543689,-0.0019041817429753653,-0.00016620233493278765,-0.7094016292723357,-0.7048018673931796,0.0013043195597034324,-0.00035691549371719237,-0.0023820144067076047,0.0,1.2009682532858392e-15,9.80665
209,207.587,0.9029126213592233,-0.0018748629297822695,-0.00017840462590476474,-0.7094022978210012,-0.7048012701090838,0.001762179285669496,-0.000640201925292397,-0.002606560530515027,0.0,1.2009682532858392e-15,9.80665
210,207.679,0.8679245283018868,-0.0018379253984784423,-0.00019268486345100217,-0.7094031224506149,-0.7048005352445874,0.002204565321790077,-0.000949307436940202,-0.0029230514328446983,0.0,1.2009682532858392e-15,9.80665
211,207.798,0.9245283018867925,-0.00179033921650573,-0.00019391040236013893,-0.7094039075537535,-0.7047998655004579,0.0006620141821257982,-0.000596582044181546,-0.003858613910779277,0.0,1.2009682532858392e-15,9.80665
212,207.879,0.8454545454545455,-0.0017579486220537202,-0.00019474459271005544,-0.7094044419516882,-0.7047994096242017,-0.0003879576020152913,-0.000356491650791233,-0.004495425345339703,0.0,1.2009682532858392e-15,9.80665
213,208.001,0.9099099099099099,-0.001706338105535176,-0.000199554908941978,-0.7094153386137243,-0.7047885660646875,-0.0004407327396328893,0.0001816906118765874,-0.0029031177866270597,0.0,1.2009682532858392e-15,9.80665
214,208.079,0.8990825688073395,-0.0016721290083986065,-0.0002041555012700523,-0.7094266362023998,-0.7047772744614472,0.0001815501691308707,0.0006015468696132864,-0.0007901307311837524,0.0,1.2009682532858392e-15,9.80665
215,208.217,0.8899082568807339,-0.0016228552708427144,-0.00021762800639123453,-0.7094441705057943,-0.7047597372882946,0.0013467039123644699,0.0008977513995486292,0.0016923955045639665,0.0,1.2011556043333518e-15,9.8081798374
216,208.334,0.8636363636363636,-0.0016052917741950425,-0.00024052788173633592,-0.7094537556744829,-0.704750120719636,0.0024727032971568978,0.00018768154643472427,0.0010943696545436675,0.0,1.2017176574758894e-15,9.8127693496
217,208.415,0.8928571428571429,-0.0015931324303620395,-0.000256381641590636,-0.7094603915604981,-0.7047434630951802,0.0032522413327823823,-0.00030390527495179867,0.0006803517583757906,0.0,1.202106771189954e-15,9.815946704199998
218,208.519,0.8070175438596491,-0.0016712348747089543,-0.0002039449461739376,-0.7094650266468269,-0.7047386217052056,0.0034658519119159024,-0.002544952134310268,0.0005136195006387493,0.0,1.201730313462623e-15,9.812872693574295
219,208.601,0.92,-0.0017433713956529384,-0.0001544015139446142,-0.7094682436308052,-0.7047352219650698,0.0035455987468945385,-0.004493263311661812,0.00042325285044554335,0.0,1.2013348138772035e-15,9.809643194377509
220,208.701,0.95,-0.001957537664799062,-4.660031641875114e-05,-0.7094700477746944,-0.7047326972983923,0.003998542392981194,-0.007465667667843047,0.00026442396587559246,0.0,1.2038277015079483e-15,9.829999166666665
221,208.767,0.8137254901960784,-0.0023626347479107483,0.00012357764341239063,-0.7094668097843965,-0.7047344196563512,0.005040880242761756,-0.010673962134335722,5.796928806895785e-05,0.0,1.2116911841187485e-15,9.894209374999999
222,208.916,0.7745098039215687,-0.003277172102208314,0.0005077672800008651,-0.7094594997759966,-0.704738308009925,0.0073940369036299206,-0.017916929945053804,-0.0004081177875853993,0.0,1.2294435918310087e-15,10.039168784722218
223,208.993,0.7956989247311828,-0.003994273729553257,0.0008228726590786624,-0.7094587935700823,-0.7047341240205646,0.007863302649668278,-0.01919122240001173,-0.0001969757257497151,0.0,1.2433397637481517e-15,10.152639639558224
224,209.108,0.8279569892473119,-0.005139439736252319,0.0013288465646783868,-0.7094586706279911,-0.7047259963206606,0.00833759998087306,-0.02034545523754091,0.0002554906550869886,0.0,1.2655263258570488e-15,10.333806667670691
225,209.196,0.7339449541284404,-0.005991737847974709,0.0017048349547243431,-0.7094599724549988,-0.7047179362887436,0.00855563762784004,-0.020618621550500378,0.0006642581783235148,0.0,1.2819711600334625e-15,10.4680889292
226,209.319,0.7981651376146789,-0.0070525482212287095,0.002169530824283321,-0.7094693796407141,-0.704696665923868,0.008072759605944191,-0.017684318538755392,0.0015755050755105278,0.0,1.3020609569744265e-15,10.632134570399987
227,209.406,0.7522123893805309,-0.00780287750962809,0.002498218146654397,-0.709476033503781,-0.7046816210316389,0.007731211736798253,-0.015608835920691285,0.002220045563764936,0.0,1.3162708133473075e-15,10.748166853200011
228,209.559,0.7008547008547008,-0.008618671477622495,0.002854817879041625,-0.7094692803165006,-0.7046775750336643,0.005913175925612447,-0.011258175512775772,0.001159989170031621,0.0,1.3248985692789117e-15,10.8186178268
229,209.649,0.75,-0.009048785961992633,0.0030427072364424958,-0.7094634847470281,-0.7046774090884571,0.004723480775952291,-0.008629745626822009,0.0003197301782201646,0.0,1.328357357848375e-15,10.8468609788
230,209.765,0.75,-0.009414935159192686,0.003217147438539612,-0.7094740990612277,-0.7046611878169748,0.00320718778902679,-0.0067277416680009495,-4.718658444470369e-05,0.0,1.3303077302917108e-15,10.862786978399999
231,209.86,0.6583333333333333,-0.009663416670255484,0.0033415189006457966,-0.7094877285861707,-0.7046435333224501,0.001970062003470744,-0.005575658716261188,-0.00015219613723458603,0.0,1.3312204661642085e-15,10.870240032400002
232,209.959,0.6597938144329897,-0.00992719843278488,0.0034755532338604563,-0.7094980422820244,-0.7046288617148592,0.0008786405883729066,-0.005026298660785012,-0.0004726121458225414,0.0,1.3308313524501435e-15,10.867062677799998
233,210.027,0.6907216494845361,-0.01011567098924868,0.0035742860528037096,-0.709499265898961,-0.704624398488253,0.00042698941379792487,-0.005630157951265481,-0.0010105826868674814,0.0,1.3285447088958878e-15,10.848390816200004
234,210.098,0.61,-0.010312458511438942,0.0036773747314062877,-0.7095005434989978,-0.7046197383545905,-4.4587547890947684e-05,-0.006260658092796944,-0.0015722872223706303,0.0,1.3261571840083547e-15,10.828895195999996
235,210.214,0.67,-0.01055916137258492,0.0038164861405378136,-0.7095007295792586,-0.7046152470813556,-0.0007559868274256655,-0.005469167154282275,-0.0013798384983092229,0.0,1.3220834996932094e-15,10.7956310392
236,210.296,0.61,-0.010616038489965394,0.003868772874626704,-0.7094978744552511,-0.7046169772394354,-0.0011660892283543694,-0.0020481416564436857,0.0005001373328267383,0.0,1.3189321589965876e-15,10.769898389600002
237,210.387,0.6288659793814433,-0.010679158217790074,0.0039267983966034085,-0.7094947059639747,-0.7046188972929143,-0.0016212028684094708,0.0017483622496948983,0.0025864519746974833,0.0,1.3154349394430189e-15,10.7413414248
238,210.512,0.7111111111111111,-0.010303547351790024,0.003788171971602647,-0.7094751584191885,-0.7046447374739032,-0.0019582549187665277,0.005693918239136475,0.0011741646120080156,0.0,1.3026502320640393e-15,10.636946366666661
239,210.623,0.6555555555555556,-0.009769624897735071,0.003570440460685795,-0.7094512141562259,-0.704677740287193,-0.0021326846132675792,0.008647368235540541,-0.0019341991485460727,0.0,1.287838290273515e-15,10.515997683333334
240,210.746,0.7532467532467533,-0.009109046598148728,0.0032720857325382407,-0.709454633288996,-0.7046841265884082,-0.004456906707729603,0.010117913463286138,-0.00043123893971930673,0.0,1.2780753170580268e-15,10.436276957142848
241,210.876,0.7142857142857143,-0.008402997914218576,0.0029502289376240227,-0.7094616693360779,-0.7046874274517962,-0.007156883535881429,0.011466228181407615,0.0017225442986403962,0.0,1.2685165901441197e-15,10.358224028571426
242,210.932,0.6708860759493671,-0.008095618449106444,0.0028117032793571533,-0.7094644097865661,-0.7046891304539257,-0.008210324760214964,0.01203535588465592,0.002601418441042774,0.0,1.2644329660809928e-15,10.324878707569727
243,210.981,0.6891891891891891,-0.007776647268085108,0.002692353672259794,-0.7094623176207676,-0.7046949657907101,-0.0074374549558380125,0.012352715235247974,0.0026143754079225494,0.0,1.2613850904740479e-15,10.299990914541837
244,211.123,0.5945945945945946,-0.00685228180471731,0.0023464833823042376,-0.709456254609678,-0.7047118763585344,-0.005197709808460273,0.013272409679820714,0.002651924169084341,0.0,1.2525524713682092e-15,10.227867106175307
245,211.164,0.6027397260273972,-0.006585387551209719,0.0022466194253452434,-0.709454504021969,-0.7047167589872724,-0.004551022829287859,0.013537955258887478,0.002662765712800069,0.0,1.2500022081052559e-15,10.20704262629483
246,211.312,0.6271186440677966,-0.005594641781311466,0.0017613310616929098,-0.7094578534082236,-0.7047228328605524,-0.0036040002144872877,0.012688488706946336,0.0022201149780303056,0.0,1.243299982277658e-15,10.1523147992
247,211.433,0.6037735849056604,-0.00478478839627524,0.001354317740070236,-0.7094614269486923,-0.7047267025993332,-0.0029957335898652074,0.011798576433211742,0.0017973220753484554,0.0,1.2380973878044246e-15,10.109832391400005
248,211.479,0.6415094339622641,-0.004519614557834882,0.0012311463539829916,-0.7094609468916101,-0.7047289012565693,-0.003190690807066886,0.01121738305315367,0.00143993499735365,0.0,1.2365505406941917e-15,10.097201426199998
249,211.611,0.532258064516129,-0.0037586809344847677,0.0008776980286893814,-0.7094595693365044,-0.7047352104468987,-0.0037501332564278725,0.009549610745161984,0.0004143894691952868,0.0,1.232111762030048e-15,10.060956047800005
250,211.734,0.625,-0.0031179251927602094,0.0005840814122183899,-0.7094551785890971,-0.7047432375115704,-0.003423993363527613,0.008283697326768572,-0.00037620657723937167,0.0,1.2287496875787164e-15,10.033502626506024
251,211.838,0.5283018867924528,-0.0026499348530812815,0.000374426006970707,-0.7094481091664019,-0.7047523453670712,-0.002232662349730006,0.00752464495225252,-0.0008663844413508812,0.0,1.2267432506575644e-15,10.017118825702813
252,211.897,0.5416666666666666,-0.002384440333455708,0.0002554868828397979,-0.7094440986285268,-0.7047575123235572,-0.0015568111015178332,0.007094028701325101,-0.0011444661142603237,0.0,1.2256049835580645e-15,10.007824169477914
253,212.012,0.38095238095238093,-0.0019307317755033564,0.00010797314752247911,-0.7094470305059032,-0.7047559610047616,-0.0022294854270294108,0.006372297761961827,-0.0015960241076536427,0.0,1.2237914539712832e-15,9.993015576600001
254,212.098,0.38095238095238093,-0.0016098258524809665,2.1968609357937404e-05,-0.7094523221836734,-0.7047514499049414,-0.003306285950355371,0.005866476470604474,-0.001907628047745716,0.0,1.2225520547338921e-15,9.982895113799998
255,212.18,0.4,-0.0013049335678438458,-6.0029329488708457e-05,-0.7094571065183717,-0.7047474054929037,-0.004304531990899628,0.005375101559795368,-0.0021963774054311,0.0,1.2213703019726588e-15,9.973245370199999
256,212.32,0.41379310344827586,-0.0009348179869378807,-0.0001991423635344455,-0.7094291502841146,-0.704776023528083,-0.0020715598239331987,0.0032804447906093137,-0.0015330470087938437,0.0,1.219352675307139e-15,9.956770198200001
257,212.431,0.4745762711864407,-0.0006448298051858003,-0.00030801557360486404,-0.709407447064141,-0.7047982427026142,-0.00033792667184027385,0.0016374325468204332,-0.0010271239373833446,0.0,1.2177625933397882e-15,9.9437861936
258,212.494,0.44680851063829785,-0.0005872867017159704,-0.00032577453085064857,-0.7094094222801309,-0.7047962893875703,-0.0004921247757738401,0.0012540041317697752,-0.0013587251654825986,0.0,1.2171573053401323e-15,9.938843642
259,212.625,0.5319148936170213,-0.000467633581802492,-0.0003627018863934772,-0.7094135294752846,-0.7047922277324793,-0.0008127589283976654,0.0004567164750769856,-0.0020482451794668925,0.0,1.2158986906106887e-15,9.928566272800001
260,212.691,0.3064516129032258,-0.0004197230882211892,-0.0003817854253602949,-0.7094156828578169,-0.7047900869365105,-0.0009026377135887726,9.187854221090507e-05,-0.002366615848615767,0.0,1.2152645793729537e-15,9.9233883616
261,212.781,0.4166666666666667,-0.0004303143372389791,-0.00041074724245992956,-0.7094191354097309,-0.7047865879920256,-0.000585455077234642,-0.00017950900038705473,-0.002622673686593782,0.0,1.214399882230588e-15,9.9163275736
262,212.903,0.4583333333333333,-0.00044467136368531423,-0.0004500065945283172,-0.7094238155356588,-0.7047818449783908,-0.0001554963923991095,-0.000547389891464232,-0.002969774311408371,0.0,1.2132277372153812e-15,9.9067562832
263,212.967,0.45652173913043476,-0.0004860536992568347,-0.0004512816873417187,-0.7094273820619647,-0.7047782212645374,0.00043039668204622103,-0.0009503092125421975,-0.002707210673770977,0.0,1.212611375227333e-15,9.901723305622488
264,213.113,0.4318181818181818,-0.0006332933215194203,-0.00042403480484402216,-0.7094372529007343,-0.7047681821982305,0.002329405369358637,-0.002197143355016063,-0.0014142043136778273,0.0,1.2112030108499859e-15,9.890223137751004
265,213.204,0.38636363636363635,-0.0007311362829738528,-0.00038735592627846363,-0.7094400368466194,-0.7047653049805572,0.0031778109425553702,-0.0029259544241393635,-0.0007965108828357615,0.0,1.2105759993121259e-15,9.8851032
266,213.296,0.391304347826087,-0.0008453970092977141,-0.00030049229625840043,-0.7094343377805721,-0.7047709390239522,0.0031882724043703348,-0.0035406335886463977,-0.0006477542627849636,0.0,1.2105759993121259e-15,9.8851032
267,213.425,0.3230769230769231,-0.0010056104190344832,-0.00017869438025196896,-0.7094263466988318,-0.7047788389326256,0.0032029411932195835,-0.004402520678009794,-0.00043917161075714833,0.0,1.2105759993121259e-15,9.8851032
268,213.505,0.3484848484848485,-0.0011411808982989286,-0.00011291902174802057,-0.7094176202618516,-0.7047873986749369,0.0031957635038857733,-0.004556595009328947,-0.0018162667586738433,0.0,1.2098621707921007e-15,9.879274347791165
269,213.623,0.39655172413793105,-0.0013454782732486574,-1.7067399852491616e-05,-0.7094042978086943,-0.7048004620797267,0.0031832300564162003,-0.004738357361316296,-0.004027645227061369,0.0,1.2087239036926008e-15,9.869979691566266
270,213.719,0.29310344827586204,-0.0015054895969266336,6.0859327860468546e-05,-0.7094078109476489,-0.7047966091927123,0.002738018560898885,-0.00458514880804948,-0.004750910723074008,0.0,1.2079889333119648e-15,9.863978202964427
271,213.827,0.3448275862068966,-0.0016753135145193034,0.00014843769239437566,-0.7094353608095513,-0.7047684650136602,0.0015218909215568635,-0.0039177392379347665,-0.0037956846539269826,0.0,1.2074762670220246e-15,9.859791965019763
272,213.919,0.4827586206896552,-0.0018199783332093706,0.00022304148440474865,-0.7094588292104309,-0.7047444903426158,0.0004859303398950343,-0.003349205159688841,-0.0029819735579868396,0.0,1.2070395512935568e-15,9.856225910474308
273,214.041,0.2833333333333333,-0.001979516758234502,0.000333616087453605,-0.7094738946846388,-0.7047288314489435,-0.00011391226037564436,-0.0031988466010860555,-0.0021773229137335604,0.0,1.2059185858420662e-15,9.84707253292683
274,214.146,0.4307692307692308,-0.0021132208546785942,0.0004300817769862876,-0.7094850695972349,-0.704717154501838,-0.0005438254511539764,-0.003136777500735559,-0.0015154096777778919,0.0,1.2048933690404808e-15,9.838701002439025
275,214.272,0.38028169014084506,-0.002261991670845437,0.000478695472329854,-0.7094879640682147,-0.7047137456324427,0.0005109745613297943,-0.0028450525142252755,-2.878194628298022e-05,0.0,1.205017918235919e-15,9.8397180238
276,214.394,0.4305555555555556,-0.002402028687006558,0.000502696554899474,-0.7094871538250134,-0.70471408805662,0.002071939094457819,-0.0024879499152302637,0.001648518468719023,0.0,1.2056039907435227e-15,9.844503669
277,214.452,0.5277777777777778,-0.0024638753008775684,0.0005117479326266657,-0.7094867583947918,-0.7047142700359008,0.002626095067308936,-0.002413307048521366,0.002208802140358658,0.0,1.2056620774152154e-15,9.844977982669324
278,214.55,0.5945945945945946,-0.0025562171219785435,0.0005209762144843042,-0.7094860639437766,-0.7047146268532044,0.0030791886035813365,-0.0025317788233542786,0.002545798275308092,0.0,1.2051931734756854e-15,9.841149091434263
279,214.609,0.4864864864864865,-0.002611810667335243,0.0005265320168271671,-0.7094856458559203,-0.7047148416717851,0.0033519694060309985,-0.002603103667386325,0.0027486837034918993,0.0,1.204910874165152e-15,9.838843942629483
280,214.788,0.5789473684210527,-0.0026990005072132176,0.0005391155628102201,-0.7094720813411015,-0.7047281670955323,0.0026765623063380096,-0.0021184167791423406,0.0008435219060627186,0.0,1.2045711580456967e-15,9.83606995
281,214.806,0.6078431372549019,-0.0027023820293388527,0.0005400985211341095,-0.7094699044424108,-0.7047303449144077,0.0025092841824515336,-0.002023330365773215,0.00048530322965206285,0.0,1.2045711580456967e-15,9.83606995
282,214.897,0.5490196078431373,-0.002719477502307336,0.000545067921549327,-0.7094588990101408,-0.7047413549987217,0.0016636003339145673,-0.0015426157204072055,-0.0013256911899791148,0.0,1.2045711580456967e-15,9.83606995
283,214.983,0.5490196078431373,-0.0027172566853085538,0.0005444739228364843,-0.7094551681342515,-0.7047451199891878,0.0009304116563003222,-0.000972004186669227,-0.0015828747826397245,0.0,1.204323184843601e-15,9.8340450951417
284,215.111,0.5686274509803921,-0.002695180452750789,0.0005381860945952956,-0.7094564280123402,-0.7047439412413363,-9.340176223073134e-05,-3.919391638400977e-06,-0.00048018559655143927,0.0,1.2037008207285382e-15,9.828963106477733
285,215.201,0.5384615384615384,-0.0026860479015461316,0.0005303002632127118,-0.7094568590826641,-0.7047435482101101,-0.0005140444152057656,0.00035685067530727454,0.00010332189220935191,0.0,1.2033701897924109e-15,9.8262633
286,215.278,0.625,-0.0026951319672419397,0.0005143912840096258,-0.7094560252429764,-0.7047443643351046,-8.264062553650045e-05,-0.00018048675614401849,9.528539748862496e-05,0.0,1.2033701897924109e-15,9.8262633
287,215.412,0.55,-0.0027109406010502315,0.0004867055279938621,-0.7094545741453379,-0.7047457846045755,0.0006681140214205017,-0.0011155934550334053,8.129980927333206e-05,0.0,1.2033701897924109e-15,9.8262633
288,215.466,0.4186046511627907,-0.00271990342970247,0.00048444800796145475,-0.7094549670388044,-0.704745356059668,0.0006027728721964838,-0.0014234333783388453,-0.00015915510663766632,0.0,1.2031924464909245e-15,9.8248119158
289,215.582,0.4146341463414634,-0.002741715366511752,0.0004883821385542989,-0.7094567759739776,-0.7047434476140371,9.931361698549163e-05,-0.002016622841358142,-0.0009074511197395078,0.0,1.2026351972214e-15,9.820261630200001
290,215.707,0.4878048780487805,-0.002754615671042977,0.0004947187002500749,-0.7094566667082045,-0.7047435030329238,-0.00036395025020463987,-0.0023051317417994766,-0.0013537116898224295,0.0,1.2023037299834928e-15,9.817554994799998
291,215.778,0.3953488372093023,-0.0027410775242799235,0.0005024445514611265,-0.7094525540082527,-0.7047476901927179,-0.00047112922789527387,-0.0017789197566454142,-0.0008986277652439399,0.0,1.202644804967426e-15,9.8203400834
292,215.93,0.24,-0.0027118956621984746,0.0005188192293787975,-0.7094436848451533,-0.7047567200358484,-0.000700276869582018,-0.0006596914008259768,5.115826125248098e-05,0.0,1.2033653859193978e-15,9.8262240734
293,215.992,0.30434782608695654,-0.0026877488046377876,0.0005153250484734116,-0.7094360938731199,-0.7047644549579268,-0.0007749012296553559,-0.0006534010162577047,-0.0010690898129248718,0.0,1.2030675457925828e-15,9.823792024200001
294,216.119,0.3157894736842105,-0.0026382866931828155,0.0005081676133930214,-0.7094205446239547,-0.7047802990725066,-0.0009277608059346648,-0.0006405158736743039,-0.0033637915132566877,0.0,1.2024574539199136e-15,9.818810246
295,216.191,0.7142857142857143,-0.002606994002677242,0.0005050364921853609,-0.7094141545625814,-0.7047868504338205,-0.000915495424531397,-0.000563833848107604,-0.0043704856634139986,0.0,1.2022268680152827e-15,9.8169273692
296,216.315,0.36363636363636365,-0.0025251047763932707,0.0005076233820934067,-0.7094240336487257,-0.70477719861328,-4.2509549297422796e-05,0.00016564323706549802,-0.0035705111399293226,0.0,1.2028225482689124e-15,9.8217914676
297,216.404,0.6363636363636364,-0.0024663294446249347,0.0005094801014628913,-0.7094311242831358,-0.7047702710969244,0.0005840690224431055,0.000689219532068785,-0.0029963358771056305,0.0,1.2032500929670823e-15,9.825282635
298,216.499,0.3888888888888889,-0.0024608737255327096,0.0005055053974071637,-0.7094392363751688,-0.7047621285879647,0.0014866033394586383,8.427097338754006e-05,-0.0012886080801844974,0.0,1.2030352584070325e-15,9.823528377689243
299,216.566,0.5833333333333334,-0.002471454179427583,0.0005012018395856231,-0.7094450944156433,-0.7047561975781684,0.0021819954782546056,-0.0006355201260583517,0.0001915584186618427,0.0,1.2027146812238843e-15,9.820910666334662
300,216.75,0.5,-0.0024761905442038895,0.00047879680217864895,-0.709451992578271,-0.7047492521269866,0.0027677032677457317,-0.0014528310904279747,0.0008356834761800212,0.0,1.2018329504282048e-15,9.813710788
301,216.793,0.5,-0.0024680413079411737,0.00046953179741781453,-0.7094501071821355,-0.7047511847421607,0.0024006695528514723,-0.0012025660411454763,-0.00031571351457385967,0.0,1.2016263838886398e-15,9.8120240442
302,216.919,0.3,-0.002444162150520195,0.0004423831788163029,-0.7094445825329945,-0.7047568477540663,0.0013251754115335274,-0.0004692312455735854,-0.003689574464224394,0.0,1.2010210958889837e-15,9.8070814926
303,217.013,0.4444444444444444,-0.0023928092791325804,0.00041078160635909996,-0.7094460177773205,-0.7047555937808332,0.0004249158669263279,0.00027742570033295594,-0.0027000851749908426,0.0,1.2005695318257483e-15,9.803394192199999
304,217.139,0.3333333333333333,-0.002318016615720422,0.0003664061446122171,-0.7094489287643764,-0.7047529396391665,-0.0007992078326642823,0.0013137159706093633,-0.0007508307064417255,0.0,1.1999642438260922e-15,9.7984516406
305,217.199,0.5555555555555556,-0.0022815500716210422,0.0003454424191334154,-0.7094504542973479,-0.704751534785364,-0.0011961090043187137,0.0015948923332616525,4.353158571761955e-05,0.0,1.1999498322070529e-15,9.7983339608
306,217.316,0.36363636363636365,-0.0022068594338913363,0.00030526775288083115,-0.7094540154511315,-0.7047482021048364,-0.0011873352723196153,0.0012498704083264002,0.001029294002335482,0.0,1.2010739384921284e-15,9.807512985199999
307,217.362,0.0,-0.002177493884014702,0.00028947258495246606,-0.7094554155628755,-0.7047468918201845,-0.0011838857708498845,0.0011142207626253723,0.0014168587131424722,0.0,1.2015158948093374e-15,9.811121832399998
308,217.508,0.375,-0.0021258032577646546,0.0002610445729700211,-0.709455792579982,-0.7047466856750337,-0.00017188673838969227,0.00012439580261704337,0.0011471483428030886,0.0,1.2017945194440997e-15,9.8133969752
309,217.599,0.3333333333333333,-0.002116142460984828,0.0002551195007800121,-0.7094538177478015,-0.7047487049386415,0.0010028296592643118,-0.0007964534936471023,0.00016407753992844407,0.0,1.2013573669999037e-15,9.8098273546
310,217.719,0.5,-0.0021068277801084582,0.00024205532418671686,-0.7094527009767635,-0.7047498616002428,0.002094841859047378,-0.001428394328173968,-0.0008416508298470701,0.0,1.2009682532858392e-15,9.80665
311,217.81,0.25,-0.002105158256503755,0.00022387816463289036,-0.7094541967522039,-0.7047483666221273,0.002203074730079301,-0.000990389788289592,-0.0011465879225828616,0.0,1.2009682532858392e-15,9.80665
312,217.909,0.2857142857142857,-0.002103341961593145,0.0002041030130303797,-0.7094558240243861,-0.704746740217364,0.0023208225787843375,-0.0005138793547891005,-0.0014783326718228336,0.0,1.2009682532858392e-15,9.80665
313,218.03,0.3333333333333333,-0.0020668560136693375,0.00018240749829759878,-0.7094543475281715,-0.7047483388912723,0.0020532911132841837,-0.0003848472863985582,0.00017120340749247442,0.0,1.2004907598839303e-15,9.802750970481927
314,218.121,0.16666666666666666,-0.0020336894304192003,0.00016650452526225672,-0.70945265795024,-0.7047501405967691,0.0017833266029485934,-0.00036357639401395526,0.0017552074404007223,0.0,1.2000518518074284e-15,9.799167014056225
315,218.22,0.6,-0.002020647039012499,0.00017030310481704522,-0.7094478231756381,-0.7047550443991745,0.0016231315489858358,-0.0005833119689486455,0.001822808366269064,0.0,1.2001515948736049e-15,9.799981478
316,218.439,1.0,-0.0020692029584965434,0.0002471032976134042,-0.7094288281058694,-0.7047740024378829,0.0016793543980457223,-0.0018744260626844063,-0.0030623157364318616,0.0,1.2022124563962432e-15,9.8168096894
317,218.512,0.0,-0.0021027385707414175,0.0002692172406004173,-0.7094339902890876,-0.7047686961847309,0.0015035803113132868,-0.0024024551790207166,-0.0018320461558179136,0.0,1.2025631391262026e-15,9.8196732312
318,218.757,1.0,-0.002220997665217107,0.00031097118727672104,-0.7094478090710231,-0.7047544059266757,0.0003674112791195685,-0.002766745053930228,0.0012665816587395906,0.0,1.2026303933483869e-15,9.8202224036
319,218.892,1.0,-0.002293023228345412,0.00029494929038107164,-0.7094512080713054,-0.7047507616157621,-0.0009153479319064773,-0.0012749066548423185,0.0017352639259770133,0.0,1.2013333476348381e-15,9.8096312216
320,218.981,0.0,-0.00232151901442497,0.00029854514659168236,-0.7094492478951036,-0.7047526413537233,-0.001035494941752462,-0.0007636418696493129,0.001304792443523319,0.0,1.200723255762169e-15,9.8046494434
321,219.138,0.0,-0.0023468296427957285,0.0003234980600649467,-0.7094402683206258,-0.7047615858715155,-0.0002938209287822321,-0.0004824582482688158,-0.0004265076983719887,0.0,1.1999690476991054e-15,9.7984908672
322,219.197,1.0,-0.0023495120776520504,0.00033023977905948426,-0.7094407689316768,-0.7047610699036168,-2.8896566247583547e-05,-0.0004133993606083081,-0.0006461209489498873,0.0,1.1998489508737768e-15,9.7975102022
323,219.279,0.5,-0.00232979078212241,0.00033056014486456363,-0.7094547706256348,-0.7047470393715801,0.0002919393058400192,-0.0004431229545734784,0.0005285874439867578,0.0,1.2002428684608545e-15,9.800726783399998
324,219.492,1.0,-0.0023043823614819123,0.0003285679053311564,-0.7094819520185729,-0.7047197607785423,0.0012610227065159858,-0.0005691842478699788,0.0024229204505682713,0.0,1.2009682532858392e-15,9.80665
325,219.619,0.0,-0.002326725396852068,0.00032327859818227355,-0.7094848152249117,-0.704716807246868,0.0020358781383838075,-0.0007152882893569684,0.0018722125589847871,0.0,1.2009682532858392e-15,9.80665
326,219.732,0.0,-0.0023456109073084048,0.0003333055053563165,-0.7094917827861372,-0.704709724710978,0.00213842271690872,-0.0006625048690324168,0.0019011441731779846,0.0,1.2009682532858392e-15,9.80665
327,219.799,0.0,-0.0023561167860054306,0.00034949816911486345,-0.7094989882758649,-0.7047024269802185,0.001791014732145544,-0.0005040764406406505,0.00227923658051783,0.0,1.2009682532858392e-15,9.80665
328,220.109,1.0,-0.002309456315480206,0.00038073566672098316,-0.7094926606209744,-0.7047089356192651,0.0009388289749842264,-0.000535644448085474,0.001007517380823162,0.0,1.200102988756897e-15,9.799584578937008
329,220.2,0.5,-0.0022848547963711797,0.00038545241524541574,-0.7094822560043571,-0.7047194894898865,0.000854442268610009,-0.0007319705793633443,0.00021098705474289562,0.0,1.1998633624928162e-15,9.797627881999999
330,220.411,1.0,-0.002297809880330442,0.00043298766981086933,-0.7094542926540112,-0.7047475710012056,0.0007568708516191716,-0.0014448003284632976,-5.354239256120515e-05,0.0,1.2008769796985895e-15,9.805904694599999
331,220.492,0.5882352941176471,-0.0023090193038944966,0.00044159770116055513,-0.709450565597297,-0.7047512809663171,0.000637499458622217,-0.0015092112692072987,-0.0004777350816874622,0.0,1.2009682532858392e-15,9.80665
332,220.582,0.0,-0.0023235976374758388,0.0004478826124909032,-0.7094488105538854,-0.7047529957540494,0.00047697235038506356,-0.0015095342239364983,-0.0010589209715834895,0.0,1.2009682532858392e-15,9.80665
333,220.692,0.0,-0.0021679828600337375,0.00038781942122681186,-0.7094470875382605,-0.7047547832780066,-0.001002014804570274,0.0018074290657164296,-0.0016691287375608108,0.0,1.2009682532858392e-15,9.80665
334,220.81,1.0,-0.0004816747248766796,-0.0002700970656701745,-0.7094489365161079,-0.7047539996660527,-0.013826559347135043,0.034427692755160624,-0.0014465110004504953,0.0,1.2009682532858392e-15,9.80665
335,221.011,1.0,0.0038240193879308104,-0.002135059902211092,-0.7094496164477446,-0.7047304748881466,-0.023677807136712418,0.061646032494954,-0.0013292021460337327,0.0,1.1650839006575458e-15,9.513632024096438
336,221.098,0.0,0.006625978076838841,-0.003429532531699286,-0.7094482939888869,-0.704705765535716,-0.020089769997749744,0.054869545197271066,-0.0014498805590759513,0.0,1.126059667174261e-15,9.194974975301188
337,221.207,0.0,0.009589840597129137,-0.004805970843111551,-0.709444093739981,-0.7046793256784948,-0.015232548514381772,0.044171975128354746,-0.001369594182819228,0.0,1.08668411430316e-15,8.87344918600001
338,221.325,0.5,0.011001190260575333,-0.0054893248414234945,-0.7094311845686907,-0.7046655564660154,-0.008784533021972577,0.02533333603292994,-0.0005216145049781946,0.0,1.075346973992142e-15,8.780874410000013
339,221.418,0.5,0.012113525164817087,-0.006027900450262694,-0.7094210103913179,-0.7046547044595698,-0.003702622506767537,0.01048593403398998,0.0001467084614559962,0.0,1.0664117701876937e-15,8.707912934000001
340,221.493,0.25,0.012235513534028263,-0.006097457239816875,-0.709420580226718,-0.704652788396114,-0.0010512976646427086,0.004578189507127558,-0.00037713222159061377,0.0,1.0625350446660876e-15,8.676257067800003
341,221.613,0.125,0.012194487409824267,-0.006097577549544871,-0.7094222614314426,-0.7046518059112385,0.00274983462691284,-0.003025526151060597,-0.0015391815635374972,0.0,1.0573468618118925e-15,8.633892339800003
342,221.702,0.0,0.01206238373845463,-0.006055481101023851,-0.7094234180455682,-0.7046531811279965,0.004927436542529286,-0.0076801853758266085,-0.002075720236819952,0.0,1.054125274316455e-15,8.607586081557379
343,221.811,0.5,0.011521360164040343,-0.005846579522009171,-0.7094244978465754,-0.7046627125379349,0.005201438031556299,-0.009707839621353107,-0.0015194624725378045,0.0,1.0525157799770106e-15,8.594443562909836
344,221.895,0.1111111111111111,0.011104424565409167,-0.0056855911491905265,-0.709425329986801,-0.7046700578446765,0.005412595142366099,-0.011270435553685386,-0.0010907867642836906,0.0,1.0512754357154202e-15,8.58431538340164
345,221.998,0.0,0.010882698901464686,-0.005786228793662881,-0.7094294177228421,-0.7046686545577702,0.004913001610475602,-0.004271005069314757,-0.00034776959273598795,0.0,1.0480699825393863e-15,8.558140871875006
346,222.114,0.5,0.010760767833948562,-0.006031109439399847,-0.7094353751842747,-0.7046624796479415,0.004015580134364446,0.0075467271308295725,0.0005849675753779388,0.0,1.0437164726212246e-15,8.522591765625002
347,222.225,0.3333333333333333,0.011068309473222423,-0.006664047654157715,-0.7094346653602485,-0.7046515316802615,0.003840367249213066,0.01753803770989089,0.0009348476282321399,0.0,1.0410233013132312e-15,8.500600353000001
348,222.316,0.6666666666666666,0.011830517813390645,-0.007662235898734322,-0.7094263754338528,-0.7046364971518325,0.004518598316237298,0.024145504161715195,0.0005691990470513845,0.0,1.040586148869035e-15,8.4970307324
349,222.399,0.0,0.012525718826950598,-0.008572671330600797,-0.7094188142921951,-0.7046227843401884,0.005137204674072519,0.030172094441949893,0.00023569539608435852,0.0,1.0401874274089443e-15,8.4937749246
350,222.499,0.25,0.013566438552895509,-0.009871940190279998,-0.7094005655231759,-0.7046029670800444,0.005233331460012031,0.03303920809763015,0.00031695411546174784,0.0,1.0417024995037036e-15,8.506146427108431
351,222.581,0.3333333333333333,0.014494662313732207,-0.011011890773687041,-0.7093822346868129,-0.7045855027347779,0.005072992983233049,0.03377152572434577,0.0005615521816117386,0.0,1.0436799974308006e-15,8.522293923092366
352,222.739,0.0,0.016287166631657735,-0.013225392537566744,-0.7093428581687353,-0.7045487575221524,0.004724371014162898,0.03395777475088835,0.00027724981191567665,0.0,1.0478448009918946e-15,8.556302125
353,222.814,0.0,0.017141121288789855,-0.014289294785496745,-0.7093210220022904,-0.7045289160343601,0.004528123594354875,0.03309657494537549,-0.0004435337978064619,0.0,1.0500966164668053e-15,8.574689593749996
354,222.892,0.5,0.01802923413220743,-0.015395753123344156,-0.7092983123891877,-0.704508280887056,0.004324026277754493,0.032200927147641945,-0.0011931487519176282,0.0,1.0524385045607126e-15,8.593812561249997
355,223.022,0.4,0.01932444874272275,-0.016928225580348667,-0.7092626184532852,-0.7044735557060681,0.0028666920659138543,0.03046870984506771,-0.0010876935779629664,0.0,1.0560819763779807e-15,8.62356376641221
356,223.1,0.6,0.020072484595615232,-0.017798696226217367,-0.7092415410994344,-0.7044526681804384,0.0018165809884829664,0.029391715096892982,-0.0008113333126281868,0.0,1.0582272173800333e-15,8.641080988549614
357,223.214,1.0,0.02109636602647855,-0.018980075270297887,-0.7092162648924508,-0.70441896704502,0.0007203466477803908,0.025825164481998453,-0.0005260595811996634,0.0,1.061406134507998e-15,8.667038816799998
358,223.301,0.0,0.02174774548821309,-0.019711478359533734,-0.7092073324029385,-0.7043873036760081,0.000705228748265658,0.019370995685459955,-0.0005305829877033841,0.0,1.0639137562208586e-15,8.687515101999995
359,223.39,0.5,0.02241409919044735,-0.020459695312890026,-0.7091981945688397,-0.7043549124134557,0.0006897633108310445,0.012768455192448581,-0.0005352103805635127,0.0,1.066479024409877e-15,8.708462106399994
360,223.599,1.0,0.02176615751504604,-0.020317339304982376,-0.7092055724617542,-0.7043723032009674,0.005432777027514825,-0.01766821784696358,-0.0008630295044248426,0.0,1.0814357383413277e-15,8.83059294397589
361,223.801,1.0,0.019105908322028728,-0.01835053497721447,-0.7092639294166243,-0.7044396713082098,0.007288731845041275,-0.04220486009906326,-0.0008877045090142897,0.0,1.1032777770844557e-15,9.008946725313786
362,223.887,0.5,0.017542382536717645,-0.01711953995859334,-0.709301435470291,-0.7044764798878226,0.006980062629949634,-0.05025638834764175,-0.0007936355407509581,0.0,1.1140814663922585e-15,9.09716554330543
363,223.986,0.4166666666666667,0.015638239458662936,-0.015604218331415844,-0.7093343569902828,-0.7045199624152922,0.007285902795616319,-0.05363545332189267,-0.0007856838255836157,0.0,1.1239366826886291e-15,9.177639491412199
364,224.116,0.3333333333333333,0.01307245460170985,-0.013552785406322916,-0.7093711562631491,-0.7045777567516204,0.00810217440043016,-0.05437887381790705,-0.0008381702421759092,0.0,1.135258787977242e-15,9.270091497137406
365,224.286,1.0,0.009608128683909879,-0.010722755174273173,-0.7094322022665261,-0.7046187528226281,0.008225517719984083,-0.05404478468000896,-0.0011468966980464415,0.0,1.1505035672827672e-15,9.394574566999992
366,224.424,0.0,0.006741101812226902,-0.008351371362925393,-0.7094882517773669,-0.704634654237794,0.007851219028234496,-0.053117162629962,-0.0015181603948585488,0.0,1.1630993223232297e-15,9.497426712199996
367,224.496,0.0,0.005395464965829709,-0.007195342145718123,-0.7095018719036746,-0.7046410832684089,0.006785834887996353,-0.05157258801162248,-0.001279429943533617,0.0,1.1668607548925213e-15,9.528141139999999
368,224.607,0.6666666666666666,0.003345879086920901,-0.005426614127015603,-0.7095202757637481,-0.7046506846609812,0.004998909115791518,-0.049015282362699794,-0.0008395921569318007,0.0,1.17219305393711e-15,9.571682665999996
369,224.697,0.0,0.0017204920147586445,-0.004029264729366819,-0.7095342268533987,-0.7046562243344165,0.003940973317391408,-0.046638670839181835,-0.000526641549820383,0.0,1.1763130814977944e-15,9.605325244117644
370,224.904,1.0,-0.0016302750257492973,-0.001206336058597361,-0.7095559857826207,-0.7046450818485476,0.005666163710861523,-0.03794802047562761,-0.000271443979757922,0.0,1.1836248588045637e-15,9.665030436764702
371,225.2,1.0,-0.004745465173872752,0.0016536905142292674,-0.7095714914774266,-0.7046152536745549,0.0028713226505393914,-0.024048900119816766,0.001460245268531253,0.0,1.1881113760936857e-15,9.701665630620152
372,225.332,1.0,-0.005626351648740974,0.002499388504273587,-0.7095640872354474,-0.7046130289313302,0.0010709455350727125,-0.01887020899358327,0.001693117610529026,0.0,1.1905691715887827e-15,9.721735053875967
373,225.399,0.0,-0.006073468268560482,0.0029286443022506583,-0.7095603290217155,-0.7046118997056025,0.00015711775676759132,-0.016241630921934265,0.0018113179659369951,0.0,1.1918166889991729e-15,9.731921806589149
374,225.525,0.16666666666666666,-0.0065757692114850625,0.003475535590893297,-0.7095431150272732,-0.7046225905585092,-0.0005200167409486461,-0.011770791891977484,1.0153483520449532e-06,0.0,1.1934185980836482e-15,9.745002386929462
375,225.622,0.0,-0.006841239767397523,0.0038033269808165652,-0.709526229938658,-0.7046354092410612,-0.0006684105835093881,-0.008498126161728793,-0.002120431040170451,0.0,1.1943853526111895e-15,9.752896536721993
376,225.82,1.0,-0.006998322718369446,0.004118257355391376,-0.7095310122847305,-0.7046274166036101,3.8640812421351055e-06,-0.002576128413510747,-0.001054784798453411,0.0,1.1956819400341963e-15,9.763483976495726
377,226.079,1.0,-0.006599620452394694,0.0039986819055775474,-0.7095600319637289,-0.7046026488254343,-0.00023289249428911458,0.004619581034753341,0.0023618211184366442,0.0,1.1976431844651749e-15,9.779498752611941
378,226.142,0.3333333333333333,-0.0064478121961230065,0.003922536138773906,-0.7095672978767423,-0.7045972060296872,-0.00051838446950627,0.006350514466818922,0.0030679547700531453,0.0,1.198207818793212e-15,9.784109341791046
379,226.209,1.0,-0.006236990057734466,0.0037863826409230256,-0.709568495916038,-0.7045985670846491,-0.0006247472695540214,0.007883282303810364,0.0030098667517301555,0.0,1.1985663167792674e-15,9.7870367
380,226.414,1.0,-0.00536812455752328,0.003119700020726938,-0.7095425653991619,-0.7046351390716908,-5.604730825871417e-05,0.011176664121448982,-0.0008352259583771114,0.0,1.1985663167792674e-15,9.7870367
381,226.504,0.5,-0.004921979345037865,0.0028116094035708105,-0.7095376451216783,-0.7046443832722903,-0.0010649692858569725,0.01122380193322896,-0.0008591969273984326,0.0,1.1989121956362137e-15,9.7898610152
382,226.599,0.0,-0.00443397676998422,0.002482338571011197,-0.7095341572341353,-0.7046523434829157,-0.0024620717552025105,0.010904447324573989,-0.00044535723142325313,0.0,1.1993685635724624e-15,9.7935875422
383,226.815,1.0,-0.003238087140698608,0.0015979601070917092,-0.7095228039442882,-0.7046728288700971,-0.0013569270710844538,0.010508060203732754,0.0017334415491282176,0.0,1.2005242934576103e-15,9.803024792890994
384,226.95,0.0,-0.0025515046196129634,0.0010447760562714164,-0.7095062869924607,-0.7046934326685863,-0.00018409032054473538,0.010848802271842234,0.0024310983323328093,0.0,1.2012059449193019e-15,9.808590899479166
385,227.276,1.0,-0.0013083256287822385,-7.762617030673295e-05,-0.7094732812915279,-0.7047309147622283,-0.0005259508220478945,0.009745660237968001,-0.0005235342739615427,0.0,1.202169221539125e-15,9.81645665
386,227.337,1.0,-0.0011223219897252064,-0.0002694525588290904,-0.7094823929852883,-0.7047220160003169,-0.0002480495218188596,0.00797151960432595,-0.0014628717345182122,0.0,1.202169221539125e-15,9.81645665
387,227.636,1.0,-0.00040966598964207426,-0.0009736146338301828,-0.709479188875197,-0.7047255410357195,-0.00045790619915346315,0.003913404732011361,-0.002714823442511276,0.0,1.202169221539125e-15,9.81645665
388,227.702,0.2,-0.00028091188961632907,-0.0011017245530293045,-0.7094738958305911,-0.7047307774876259,-0.00045925393933439175,0.0035062967287377263,-0.0023741277293304027,0.0,1.202068340205849e-15,9.8156328914
389,227.798,0.0,-0.00011983357577880155,-0.0012773855863190881,-0.7094670042234434,-0.7047374176095516,0.00017490632599213222,0.002974038724787587,-0.0010128948972561857,0.0,1.2016071683965873e-15,9.8118671378
390,228.119,1.0,0.00026752420273317226,-0.0016394848887361039,-0.7094794922953197,-0.7047241137076083,-0.0008143191810222963,0.0016373545228247437,0.0013270523604117029,0.0,1.2018677832922843e-15,9.813995219920319
391,228.22,0.0,0.0003175183180220499,-0.0016904773069324362,-0.709481649951999,-0.7047218094458462,-0.0010496738084392941,0.00102049001374734,0.0005960572870020143,0.0,1.202169221539125e-15,9.81645665
392,228.297,0.0,0.0003073271374498226,-0.001713178867829086,-0.7094710590335734,-0.7047324206877242,-0.0002582806815210185,0.0001774610872997775,-0.0011934991084397854,0.0,1.202169221539125e-15,9.81645665
393,228.408,1.0,0.0002926359550664829,-0.0017459044945762022,-0.7094557916057131,-0.704747717413029,0.000882558761179277,-0.0010378143780985759,-0.003773249236933636,0.0,1.202169221539125e-15,9.81645665
394,228.531,0.0,0.0001875938749145004,-0.0017075549619946805,-0.7094517509703279,-0.7047519020524206,0.001606411719694706,-0.0024345266167073794,-0.0034817748703063,0.0,1.2026496088404394e-15,9.82037931
395,228.631,0.0,8.559591363474495e-05,-0.0016624244436907755,-0.7094508738560308,-0.7047529171000823,0.0020938745234161064,-0.0035794250201432597,-0.0026557576842607,0.0,1.2031299961417536e-15,9.82430197
396,228.812,1.0,-0.00017605037297597993,-0.0015060845067093771,-0.7094529527886969,-0.7047511283221846,0.002172464800570454,-0.004871977786082924,-0.0024232237624199826,0.0,1.2027358073682962e-15,9.821083174395161
397,229.047,1.0,-0.0005516980816688919,-0.0012412732966808112,-0.7094595817681892,-0.7047447706763011,0.0019435993942072782,-0.005000429612943744,-0.00050452535359674,0.0,1.202169221539125e-15,9.81645665
398,229.075,0.0,-0.0005961925325114999,-0.0012067874852035544,-0.7094606212170277,-0.7047437487355173,0.0019242905582646038,-0.004878298808475918,-1.0993151089654617e-05,0.0,1.202169221539125e-15,9.81645665
399,229.315,1.0,-0.0009766489615656798,-0.0009291966424349638,-0.7094799350724946,-0.7047243055810628,0.001681318077404626,-0.004362365056996243,0.0026275897047942907,0.0,1.202169221539125e-15,9.81645665
400,229.399,0.0,-0.001109543946168265,-0.0008371949161173379,-0.7094896743333701,-0.7047144410646977,0.0015740936414439478,-0.004333819189748487,0.0030952906614753646,0.0,1.202169221539125e-15,9.81645665
401,229.484,1.0,-0.0012473359709072418,-0.0007454475542055425,-0.7094939524872098,-0.7047099972194132,0.0016851397491992135,-0.004337218027561909,0.003133129537105502,0.0,1.202169221539125e-15,9.81645665
402,229.719,1.0,-0.0016073538175838996,-0.0004887557827703973,-0.709492558770186,-0.7047109109638996,0.0019264947298349704,-0.004260127266601777,0.0028401917325281203,0.0,1.202169221539125e-15,9.81645665
403,229.8,0.6666666666666666,-0.0016820994064223108,-0.00039030902044626527,-0.7094857397665907,-0.7047176501987626,0.0011780783190831544,-0.003969548181055475,0.00341508922304424,0.0,1.202169221539125e-15,9.81645665
404,230.027,1.0,-0.0018417137087622642,-0.00018673934069044754,-0.709467551248792,-0.7047356679227468,-0.000434558537515634,-0.0028591141933164118,0.0026298163918756614,0.0,1.2017158439655954e-15,9.812754541164658
405,230.122,0.5,-0.0018789899816192448,-0.00014437082955882672,-0.7094604849848003,-0.7047426939476434,-0.0008223966333499996,-0.0022190665455914874,0.0008821799027089326,0.0,1.2012576432263898e-15,9.809013048192769
406,230.188,1.0,-0.0019062760786969345,-0.00011408567289697008,-0.7094557750315235,-0.7047473698355857,-0.0010420954059809436,-0.0018144328761845827,-0.00015692478790878982,0.0,1.200997076523918e-15,9.806885359599999
407,230.338,0.3333333333333333,-0.001999855776318853,-2.5933247901978497e-05,-0.7094495987889443,-0.7047533297989306,-0.00041080531384793417,-0.0018046066313982005,0.0014597183018923445,0.0,1.2017176574758894e-15,9.8127693496
408,230.399,0.0,-0.002037911520018436,9.915404929320871e-06,-0.7094470871169621,-0.7047557535173574,-0.00015408067638049037,-0.0018006106251850715,0.0021171531584115236,0.0,1.2020106937296912e-15,9.815162172199999
409,230.504,1.0,-0.0021145302465631725,6.862053413502614e-05,-0.7094562485626117,-0.7047462971071037,0.0013025111444294952,-0.002638004614040287,0.0023764310665428607,0.0,1.202169221539125e-15,9.81645665
410,230.613,0.0,-0.0021993552471798925,0.00012813392208006882,-0.70947217500529,-0.7047299961537888,0.0032973746452482676,-0.003908998754806952,0.0022305170483887045,0.0,1.202169221539125e-15,9.81645665
411,230.735,0.0,-0.0031946910814736004,0.00151408851456744,-0.7094775982340638,-0.704711951799288,-0.0031761446173721036,-0.04438013777480011,0.001578586763679815,0.0,1.202169221539125e-15,9.81645665
412,230.802,0.0,-0.004385065258380377,0.0032185191873141126,-0.7094717090000724,-0.7047021857245529,-0.012956024336803335,-0.0945246630214706,0.0008712150546094925,0.0,1.202169221539125e-15,9.81645665
413,231.156,1.0,-0.020908909749875644,0.02643007527841052,-0.7089412269713425,-0.7044125165552606,-0.027851608742671466,-0.16901905326000474,-0.0019851199007148955,-0.008782662449799885,1.2043203534305527e-15,9.834021974899601
414,231.199,0.5,-0.022938164114804316,0.029296989168742526,-0.7088569004145805,-0.7043659271847591,-0.025858887858686685,-0.1562815730497098,-0.002043934394605277,-0.009139797799999046,1.2045711580456967e-15,9.83606995
415,231.404,1.0,-0.02744899769078328,0.03591947180519484,-0.708569669325593,-0.7041845312423951,-0.007770991191267226,-0.03579207254945738,-0.0006818142905830734,-0.00109834479999967,1.2045711580456967e-15,9.83606995
416,231.536,1.0,-0.027524525848691823,0.03626276028500063,-0.7085694790905397,-0.7041703158170428,0.00023724632742652338,0.0004931543199102155,9.149350520419033e-05,0.0,1.2050648366952688e-15,9.840101142094863
417,231.703,1.0,-0.026536546871333794,0.03516434062417429,-0.7086407530662264,-0.704191648985213,0.008149062072187057,0.030023020190688386,0.0005887367530265524,0.0,1.205684606345302e-15,9.84516194534413
418,231.843,0.42857142857142855,-0.024876100138413366,0.03287512895143629,-0.7087600623489342,-0.7042398950811393,0.00797796612492337,0.03875174502340623,-0.002087772968328803,0.0,1.2050038955944516e-15,9.839603520242916
419,232.002,1.0,-0.02268925543102343,0.029906493414524032,-0.7088964304764883,-0.7043063661831381,0.007666307594627079,0.04826203197240952,-0.0025627057137895377,0.0,1.2042348869347766e-15,9.833324088
420,232.118,0.0,-0.020814571147622134,0.027398654658391874,-0.7089967232679988,-0.7043656925098851,0.00733008923009036,0.05482649165391962,-0.0005301160630768863,0.0,1.203677637665252e-15,9.8287738024
421,232.199,1.0,-0.01945624747099054,0.02557471354601731,-0.7090635295043743,-0.7044091016977574,0.0072723733246387616,0.05890824120358232,0.0006321818104934497,0.0,1.2033701897924109e-15,9.8262633
422,232.439,1.0,-0.014879265151247536,0.019350986429552734,-0.7092253869964531,-0.7045579219081853,0.009066181773521816,0.06518328297569091,0.001173040927780491,0.0,1.2033412507983558e-15,9.826026995180724
423,232.495,0.0,-0.013787174826745659,0.01782922935139956,-0.7092622060492201,-0.704575175931893,0.009391923491136213,0.06465660652003602,0.0009705819400872141,0.0,1.2030711535205084e-15,9.823821483534136
424,232.639,0.75,-0.010978942563741307,0.013916139721863485,-0.7093568836134782,-0.7046195434214271,0.010229545050715948,0.06330229563406653,0.00044997311459030415,0.0,1.2023766176631862e-15,9.818150167871485
425,232.715,0.4,-0.009560928326141999,0.011922109237420556,-0.7094011931572936,-0.7046344499646281,0.010412764698266951,0.061858145460485923,0.00033674660325051575,0.0,1.202169221539125e-15,9.81645665
426,232.83,0.4166666666666667,-0.0075416507095401545,0.009045232847621657,-0.7094570823598032,-0.7046402275571498,0.010179616287350604,0.05823481643199843,0.00048392244800927683,0.0,1.202169221539125e-15,9.81645665
427,232.919,0.5,-0.00597890542364844,0.006818780685081851,-0.7095003357426151,-0.7046446989113623,0.009999179691076231,0.055430674836038814,0.0005978237539530029,0.0,1.202169221539125e-15,9.81645665
428,233.015,0.4375,-0.004535851396988028,0.004718202156283351,-0.7095084789414888,-0.7046600164175189,0.009242797053611406,0.05136402068953793,0.0002465996154120432,0.0,1.202169221539125e-15,9.81645665
429,233.112,0.875,-0.0031161595590762266,0.0026433763457836437,-0.7095106121105901,-0.7046771543155813,0.008389633284647969,0.04709010669275349,-0.00018331070472051762,0.0,1.202169221539125e-15,9.81645665
430,233.249,0.7333333333333333,-0.0014058033607061851,0.0001013361908428741,-0.709525627943234,-0.7046749525927961,0.0076697427805203985,0.04063455395312192,0.00111579927137269,0.0,1.202169221539125e-15,9.81645665
431,233.284,0.6923076923076923,-0.0010409312055422615,-0.0004531203335167715,-0.7095323991465159,-0.7046679329727943,0.007604446871346055,0.03888282004611316,0.0019138284421454908,0.0,1.202169221539125e-15,9.81645665
432,233.404,0.8461538461538461,0.00021005904073421794,-0.002354114131321528,-0.7095556147006252,-0.7046438657042166,0.007380575182748276,0.032876875222082325,0.004649928456224035,0.0,1.202169221539125e-15,9.81645665
433,233.487,0.4444444444444444,0.0008538909685717152,-0.0033894456821325146,-0.7095494365675491,-0.7046457962771209,0.00749185916967692,0.028276927024125657,0.004400698612443989,0.0,1.201905008523402e-15,9.814299187
434,233.608,0.5909090909090909,0.001628146216725797,-0.004691331611043846,-0.7095239273570056,-0.7046623980687136,0.007851604741066743,0.021240092664956106,0.002447861615568137,0.0,1.2013237398888117e-15,9.809552768399998
435,233.694,0.5833333333333334,0.0021340757224436154,-0.0055502591613388035,-0.709505993755623,-0.7046742411274783,0.007923456020653242,0.016379428915679433,0.00111473863385617,0.0,1.2009682532858392e-15,9.80665
436,233.817,0.7272727272727273,0.0024663605467562712,-0.006193270873523737,-0.7094820812521714,-0.7046915625713621,0.006404832331463456,0.01066869045607656,-0.00030822761356853073,0.0,1.2009682532858392e-15,9.80665
437,233.897,0.6818181818181818,0.0026824807576912553,-0.006611489873318668,-0.7094665284043981,-0.7047028285511239,0.00541710960678752,0.006954389018937787,-0.001233734115958254,0.0,1.2009682532858392e-15,9.80665
438,233.988,0.7916666666666666,0.0027730698504737803,-0.00686059544903869,-0.7094588416949706,-0.7047080097778539,0.004145307417958801,0.0035971505083140123,-0.002287982327863709,0.0,1.2009682532858392e-15,9.80665
439,234.155,0.8181818181818182,0.0027612501287459738,-0.007057818761051568,-0.7094562104354362,-0.7047087623531674,0.0016412810971958448,-0.0015686116795990968,-0.004224404337816093,0.0,1.2009682532858392e-15,9.80665
440,234.272,0.8181818181818182,0.0025090885830111407,-0.006904407367323511,-0.7094583999611891,-0.7047089036573078,0.000455275614860924,-0.005351290704155642,-0.0028945785730082477,0.0,1.2009682532858392e-15,9.80665
441,234.311,0.8095238095238095,0.0024006466681480544,-0.006824111655087933,-0.7094595331014097,-0.7047089121637655,0.00011677168999817524,-0.006628538934566419,-0.0021826552474808864,0.0,1.2009682532858392e-15,9.80665
442,234.417,0.8571428571428571,0.0021059071046741584,-0.006605872026960564,-0.70946261291842,-0.7047089352838816,-0.0008032646186027243,-0.010100034124912081,-0.00024768415758688427,0.0,1.2009682532858392e-15,9.80665
443,234.507,0.8,0.0017246747045240106,-0.006213076407850663,-0.7094679798811717,-0.7047077651323744,-0.0003886868715300191,-0.012311275446241712,0.000739146584559018,0.0,1.2009682532858392e-15,9.80665
444,234.559,0.7777777777777778,0.0014880442005952906,-0.005960206178129693,-0.709471424589348,-0.7047069404114356,2.2474889570321243e-07,-0.013496904993003555,0.0012273560572663138,0.0,1.2009682532858392e-15,9.80665
445,234.702,0.8333333333333334,0.0008275941330956029,-0.005236255817802625,-0.7094834062374934,-0.7047019885706838,0.0007688622570139505,-0.016342165475466356,0.0024491982994623747,0.0,1.2009682532858392e-15,9.80665
446,234.799,0.8125,0.00033906375031246636,-0.004626053022909956,-0.7095019991413339,-0.7046874334368084,3.51151874458355e-05,-0.01653999985154885,0.002774337771352423,0.0,1.2009682532858392e-15,9.80665
447,234.918,0.75,-0.00026026733784411185,-0.0038774537178355105,-0.7095248089924372,-0.7046695771385489,-0.0008650487432613598,-0.016782703879938687,0.0031732202162484263,0.0,1.2009682532858392e-15,9.80665
448,235.039,0.8571428571428571,-0.0008485682616165592,-0.003060766491149109,-0.7095366459637107,-0.7046606229488367,-0.0005788101744838265,-0.016563528418540967,0.0015116774020717452,0.0,1.2009682532858392e-15,9.80665
449,235.115,0.9285714285714286,-0.0012162039135986194,-0.002542872399634131,-0.7095430713908503,-0.7046558167405171,-0.0002922295103780308,-0.016384449183940848,0.0002843332448971628,0.0,1.2009682532858392e-15,9.80665
450,235.197,0.6060606060606061,-0.0016047877122334772,-0.0019933078058783946,-0.7095487356577406,-0.7046515861894639,5.79579221085384e-05,-0.01615960828959937,-0.0008142685522325321,0.0,1.2009009990636551e-15,9.8061008276
451,235.294,0.7575757575757576,-0.0020180536925563236,-0.0013961642367657085,-0.709548148118363,-0.7046520693921993,0.0007076719182079029,-0.01571193870156995,-0.0008173986158799367,0.0,1.2004350233813802e-15,9.802295847399998
452,235.402,0.7878787878787878,-0.0024781848871424424,-0.0007313033556919975,-0.7095474939508086,-0.7046526073911211,0.0014310648210811964,-0.015213502459228066,-0.0008208836351986954,0.0,1.1999162050959609e-15,9.7980593746
453,235.509,0.8387096774193549,-0.0028879535813315094,-0.00016791777081182654,-0.7095490326083527,-0.7046497764972502,0.0014875202476978433,-0.014262798234820436,-0.0017410299913025577,0.0,1.2001323793815522e-15,9.799824571599999
454,235.599,0.8064516129032258,-0.0032168017385710637,0.0002732549907426675,-0.7095510770623981,-0.704646241250489,0.0013084852267056767,-0.013306388884782826,-0.0028294923910870745,0.0,1.2005647279527352e-15,9.803354965599999
455,235.719,0.4878048780487805,-0.003609553179071066,0.0008137540466844021,-0.7095526068743203,-0.7046426503547814,0.0007516578864306064,-0.011663148306310149,-0.003112772965803713,0.0,1.2009682532858392e-15,9.80665
456,235.767,0.7560975609756098,-0.0037239885040618458,0.0009854044624500113,-0.7095521024140713,-0.7046422619120294,0.00023202056996520892,-0.010662359170615606,-0.002135949412360721,0.0,1.2009682532858392e-15,9.80665
457,235.913,0.7142857142857143,-0.00407206261757549,0.0015075078104037731,-0.7095505680141474,-0.7046410803986589,-0.0013485429342838112,-0.007618292216211178,0.0008352222293619054,0.0,1.2009682532858392e-15,9.80665
458,235.999,0.7083333333333334,-0.004198417799936289,0.0017548214700751944,-0.7095494657258623,-0.7046408632528801,-0.002021622821688669,-0.00642168227210638,0.0008703543092124031,0.0,1.2009682532858392e-15,9.80665
459,236.142,0.7291666666666666,-0.004368877693323659,0.0021357055517972337,-0.7095475328500803,-0.7046407434478438,-0.0030108455559239014,-0.004732517585158311,6.461921869775405e-05,0.0,1.2009682532858392e-15,9.80665
460,236.199,0.6818181818181818,-0.004422223754871292,0.0022618636235207574,-0.7095486062416203,-0.7046389846667515,-0.0031405326798556355,-0.004076791841536551,7.075803494109933e-05,0.0,1.2008913913176289e-15,9.8060223744
461,236.293,0.6511627906976745,-0.004448502308284027,0.0023614656991985086,-0.7095581682312809,-0.7046288536322968,-0.0022361576370893595,-0.003069700608029815,0.0014640364469962355,0.0,1.2004398272543934e-15,9.802335073999998
462,236.412,0.6486486486486487,-0.004481769838668236,0.00248755768862035,-0.7095702733032981,-0.704616028173785,-0.0010912573169915576,-0.0017947659613563169,0.0032278676282150795,0.0,1.1998681663658293e-15,9.797667108599999
463,236.501,0.7837837837837838,-0.004466571500264729,0.0024962089118568125,-0.7095723428996588,-0.7046140129162202,-1.5110568513540534e-05,-0.0009649394175418055,0.0029502921255236928,0.0,1.200095260298511e-15,9.799521471285141
464,236.599,0.6666666666666666,-0.004436207239267167,0.0024766084732944908,-0.709572246927655,-0.7046143704125,0.0012446297332644463,-9.326101280748801e-05,0.002101670019328594,0.0,1.2005679305347438e-15,9.803381116666666
465,236.691,0.6666666666666666,-0.004398369768068976,0.002453252794904764,-0.7095717551133877,-0.7046151822452542,0.002319554161963129,0.0007371851224527941,0.0012897916882115587,0.0,1.2009682532858392e-15,9.80665
466,236.829,0.6744186046511628,-0.004212517483468108,0.0023496714216058308,-0.7095654602915965,-0.7046229877597426,0.002442244136060392,0.002150732838359661,-0.00013846788737213256,0.0,1.2009682532858392e-15,9.80665
467,236.899,0.6875,-0.004118244585482173,0.002297130145294785,-0.7095622672660503,-0.7046269470786861,0.002504478180892328,0.0028677497957036273,-0.0008629473822333272,0.0,1.2009682532858392e-15,9.80665
468,237.032,0.5471698113207547,-0.0039024402192220226,0.0021576273625268892,-0.7095460089048397,-0.7046449595870233,0.0021845926978409933,0.003571218685605256,-0.0020822487467041487,0.0,1.2014763552391525e-15,9.810798967307692
469,237.108,0.7222222222222222,-0.003771923904632103,0.0020701254655085166,-0.7095347183271153,-0.7046573110537195,0.0019158187380028547,0.003843900168505634,-0.0027481402682427453,0.0,1.2018664133043222e-15,9.813984033119658
470,237.194,0.7580645161290323,-0.0036320997161502625,0.0019594700759348127,-0.7095263024679188,-0.7046668468358986,0.001745077135208767,0.00397363488740302,-0.0033103887703311366,0.0,1.2020477753112647e-15,9.815464966292135
471,237.269,0.6774193548387096,-0.0035251488475897203,0.0018407859500751762,-0.7095272724528163,-0.7046667000124535,0.001850387874174494,0.0037459898269159575,-0.003436239881001506,0.0,1.2017104246783192e-15,9.812710289325842
472,237.399,0.8166666666666667,-0.0033397673420848296,0.0016350667985851942,-0.709528953759972,-0.7046664455184817,0.0020329264883817066,0.0033514050554051514,-0.0036543818061634224,0.0,1.2011256835812138e-15,9.807935515917602
473,237.551,0.75,-0.003134954587971619,0.0013713603616775049,-0.7095582916577058,-0.7046383783986949,0.0019076440023280882,0.0036128032896443063,-0.0009032009079695123,0.0,1.2009682532858392e-15,9.80665
474,237.645,0.7164179104477612,-0.0030105031282639926,0.0012039917455952702,-0.7095814986011485,-0.7046158837952349,0.001767505670946261,0.003908166229859586,0.001354334759993889,0.0,1.2009682532858392e-15,9.80665
475,237.71,0.6935483870967742,-0.0029199237387510383,0.0010872071044779592,-0.7095867177200231,-0.7046112044864931,0.0016856582369655223,0.00383340375911847,0.0017679135263377155,0.0,1.2009682532858392e-15,9.80665
476,237.839,0.6935483870967742,-0.0027275263306551292,0.0008524988293977399,-0.7095668306430793,-0.704632294812875,0.0015652784560289562,0.002905728876084759,-0.0006163984215187654,0.0,1.2009682532858392e-15,9.80665
477,237.911,0.6307692307692307,-0.0026201417307876334,0.0007214988619110913,-0.7095557308792038,-0.7046440661578325,0.0014980897410876097,0.002387956848344957,-0.0019471771831132269,0.0,1.2009682532858392e-15,9.80665
478,237.997,0.6,-0.002540169905929506,0.0006121870493162719,-0.7095471495228424,-0.7046530982236975,0.0009657941597370701,0.002561717353949734,-0.0019933030907071116,0.0,1.2013000382896654e-15,9.809359230155643
479,238.118,0.5362318840579711,-0.0024420064690350582,0.00047240622569779637,-0.7095364658950674,-0.7046643115192214,8.24976833863106e-05,0.0030416777911904166,-0.0015994230935763064,0.0,1.2018654747046362e-15,9.813976368871595
480,238.251,0.4927536231884058,-0.0023591062953599905,0.00031250621747792927,-0.7095312863197711,-0.7046699007350316,-9.609757177526473e-05,0.002779303532093671,-0.00045589942764474357,0.0,1.2015158948093374e-15,9.811121832399998
481,238.319,0.4225352112676056,-0.0023289385464629517,0.0002276950814498499,-0.7095318458833625,-0.7046694662796925,0.0001998052801936677,0.0022590992860496376,0.000476035810075641,0.0,1.20086256807955e-15,9.8057870148
482,238.413,0.5833333333333334,-0.0022872360700464363,0.00011045615811686041,-0.7095326193977387,-0.7046688657090767,0.0006088474579156236,0.001539993416517834,0.0017642992269250265,0.0,1.199959439953079e-15,9.798412413999998
483,238.512,0.5,-0.002250324335317991,4.808683305853155e-06,-0.7095339949716024,-0.704667602626584,0.0008629780150950119,0.00099607800669033,0.0018197545842267358,0.0,1.2001467910005917e-15,9.7999422514
484,238.58,0.5373134328358209,-0.0022261896140066736,-6.465720994210228e-05,-0.7095350373481961,-0.7046666254050304,0.0010068111903965892,0.0006595949314068026,0.0016315553379244556,0.0,1.2004734543654856e-15,9.8026096602
485,238.759,0.5573770491803278,-0.0021900585310476333,-0.0002149376456772737,-0.7095387705011702,-0.7046629590069065,0.0011784576153492257,-0.00011946418089790246,0.002353514629123919,0.0,1.2009682532858392e-15,9.80665
486,238.863,0.43103448275862066,-0.0021906413708309928,-0.00027659875114309745,-0.7095417184345604,-0.7046599673717957,0.0011152112034752027,-0.00048809795407581857,0.0037315499297728007,0.0,1.2009682532858392e-15,9.80665
487,238.925,0.5740740740740741,-0.0021909888330095342,-0.00031335825632464854,-0.7095434758563892,-0.7046581838970181,0.0010775066117810713,-0.0007078603957780514,0.004553070974390455,0.0,1.2009682532858392e-15,9.80665
488,238.991,0.6111111111111112,-0.00218375683559723,-0.00030881632483978073,-0.7095394434758628,-0.7046622688291501,0.0006545284097746208,-0.0008229592358883864,0.004002358026954256,0.0,1.2009682532858392e-15,9.80665
489,239.114,0.4827586206896552,-0.0021668040649673805,-0.0002803880782516086,-0.7095292301309455,-0.7046726168110756,-0.00030875282162544436,-0.0009831368410009676,0.002324528115972397,0.0,1.2009682532858392e-15,9.80665
490,239.191,0.5434782608695652,-0.0021565630456249524,-0.00026396181299558497,-0.7095236589753221,-0.7046782648057662,-0.0007836550213395749,-0.0010832429677248125,0.00127194489538656,0.0,1.2009682532858392e-15,9.80665
491,239.306,0.41025641025641024,-0.0021460559484188647,-0.00025708032379911965,-0.7095259342757557,-0.7046760083508065,0.00015754920244232364,-0.0012305924249813203,-0.00032887757569577706,0.0,1.2009682532858392e-15,9.80665
492,239.437,0.4358974358974359,-0.0021369133065693574,-0.0002493891767970019,-0.7095279678391053,-0.7046739911900687,0.0011953967139124795,-0.001414496058598262,-0.002055671683512432,0.0,1.2009682532858392e-15,9.80665
493,239.527,0.5348837209302325,-0.0021922823890106993,-0.000247328416022364,-0.7095171867450032,-0.7046846730738809,0.0011600868571549677,-0.0018910141270607399,-0.0011315807518549868,0.0,1.2009682532858392e-15,9.80665
494,239.596,0.5531914893617021,-0.0022347320188824175,-0.0002457484994284742,-0.7095089212395249,-0.704692862518137,0.0011330159669741945,-0.0022563446462154964,-0.0004231110375839094,0.0,1.2009682532858392e-15,9.80665
495,239.684,0.6222222222222222,-0.0022887667623282893,-0.00024328473012366218,-0.7094986192797332,-0.7047030661715719,0.0010928842008579235,-0.0027146376939490326,0.0004790526044089774,0.0,1.2009682532858392e-15,9.80665
496,239.831,0.5777777777777777,-0.0023639274339551965,-0.0001739447483927062,-0.7095162246622674,-0.7046851075367843,0.0002110452270135515,-0.0023704981822520585,0.0017837865888140755,0.0,1.2009682532858392e-15,9.80665
497,239.901,0.5818181818181818,-0.0023997182299680224,-0.0001409257094731912,-0.7095246081777599,-0.704676555805933,-0.0002088780938648751,-0.002206622224301058,0.0024050884861500648,0.0,1.2009682532858392e-15,9.80665
498,240.036,0.6530612244897959,-0.0026736793433358367,-0.0005744480668068931,-0.7095201525852437,-0.704679567194801,0.017996133205249586,0.0036660948451613285,0.001804226861102432,0.0,1.2009682532858392e-15,9.80665
499,240.108,0.6122448979591837,-0.002853748971263749,-0.0008880442591275935,-0.7095143589921817,-0.7046844050017045,0.030856155435323884,0.0077189275529242,0.0011856662284116207,0.0,1.2009682532858392e-15,9.80665
500,240.211,0.5689655172413793,-0.004032247170156588,-0.0017506593981103122,-0.7095029944834791,-0.7046815688681455,0.048507194846871556,0.002474015593521983,0.00048155633127312537,0.0,1.2126704879458647e-15,9.902205997600067
501,240.279,0.6557377049180327,-0.006438780939671729,-0.0030522581776845255,-0.7094900513733636,-0.7046624426156091,0.058841210514307574,-0.020516329526902473,0.00033638627687468603,0.0,1.2410902006916139e-15,10.134270563200012
502,240.46,0.6379310344827587,-0.013651615112553148,-0.005517415463225947,-0.7094547757925592,-0.7045774528612657,0.07954709568762063,-0.07995393147981901,0.0005518193783397435,0.0,1.3099740650243195e-15,10.69675000119524
503,240.524,0.6206896551724138,-0.01782996886420259,-0.00437351945842826,-0.7094406406975903,-0.7044786690563077,0.0731527350427376,-0.09742648169339117,0.0018417763030269228,0.0,1.3206918693564307e-15,10.784267515139451
504,240.618,0.6140350877192983,-0.023966925936937996,-0.002693422201381579,-0.7094198797768547,-0.7043335803427756,0.06376101784556523,-0.12308928981957648,0.0037364005361613067,0.0,1.3364336444692201e-15,10.912808863745019
505,240.719,0.5964912280701754,-0.030106308918374798,-0.0005379471885031378,-0.7093961521614551,-0.7041476724313133,0.05216922525316525,-0.13321003377437668,0.004736293610185433,0.0,1.3466457024094116e-15,10.996196645000001
506,240.818,0.6619718309859155,-0.035283883542082534,0.002222264055358622,-0.7093702684736672,-0.703909967455675,0.038033133551476306,-0.11087047600745827,0.0038018043115733815,0.0,1.3442677852679053e-15,10.976779477999997
507,240.904,0.6301369863013698,-0.03978157462934216,0.004620023317702308,-0.7093477836539727,-0.7037034762647166,0.025753296315670172,-0.09146439552307155,0.0029900257289409856,0.0,1.342202119872254e-15,10.95991204
508,241.038,0.6712328767123288,-0.04392729499844877,0.007228136150658246,-0.7093408313043728,-0.7034486174113618,0.014387634143232386,-0.06904278302192486,0.002679551340639596,0.0,1.331489483052943e-15,10.87243672199999
509,241.139,0.6419753086419753,-0.046429723792238704,0.008948715030594537,-0.7093416967890607,-0.7032710642258032,0.00750992452725683,-0.05384223490953258,0.0026530429068952832,0.0,1.3217856595663933e-15,10.79319898999999
510,241.226,0.7948717948717948,-0.04816853128892582,0.010324653774721805,-0.7093389845927854,-0.7031412517812293,0.0030793565139173944,-0.044702147603034884,0.00272556279785932,0.0,1.3134269205235249e-15,10.724944705999999
511,241.319,0.7763157894736842,-0.04954994437576531,0.01167391591782768,-0.709332125160199,-0.7030289773327804,5.41064888241868e-05,-0.03945968031883291,0.0029122947948053346,0.0,1.3044917167190793e-15,10.651983230000008
512,241.395,0.8529411764705882,-0.05067884109189266,0.01277653874445228,-0.7093265196023862,-0.702937226170607,-0.0024181408435110423,-0.03517551350593495,0.003064892985858053,0.0,1.2971898297390994e-15,10.59235879799999
513,241.499,0.7794117647058824,-0.051041622037465366,0.01391356442897785,-0.7093291909156731,-0.7028884584875437,-0.008416929330102105,-0.02345318147331092,0.0025923836041286587,0.0,1.2885060222931288e-15,10.521450129051388
514,241.599,0.7532467532467533,-0.05070851231954202,0.01479234300763391,-0.7093377260688005,-0.7028858664108625,-0.01569406048435106,-0.008801061457592449,0.0017449738376815863,0.0,1.2809109661458674e-15,10.459431789130445
515,241.692,0.6753246753246753,-0.050371236741887315,0.015603218458010878,-0.709336291335685,-0.7028948218896126,-0.02224554358080257,0.003686861018650587,3.059251955043617e-05,0.0001977147177417633,1.273936759900803e-15,10.4024830733871
516,241.794,0.7105263157894737,-0.04947080061389225,0.01636924460166328,-0.7091537997111839,-0.7031240466166991,-0.025256740267298496,-0.004594378988258822,-0.01973008624308118,0.004231094959677556,1.2680094004571662e-15,10.35408251048387
517,241.881,0.6710526315789473,-0.04870278156354364,0.01702261984183728,-0.7089981450902858,-0.7033195618250964,-0.02782511391166225,-0.011657789582386283,-0.036584782834734805,0.007671331048386934,1.2629537115199473e-15,10.312799677419358
518,242.007,0.7105263157894737,-0.04797226542596245,0.019222483122421512,-0.6951220162408781,-0.7164119499983611,-0.03930038083569169,-0.024494547845728944,-0.28047541879029053,0.00980665,1.2570375542675573e-15,10.264490587349396
519,242.119,0.7333333333333333,-0.047577442624544546,0.0220136476105183,-0.6736872141397565,-0.7365891138521118,-0.05467098701490948,-0.03764299376602173,-0.6435873523414407,0.00980665,1.2527159978219987e-15,10.229202401004017
520,242.199,0.72,-0.04748388731710457,0.0234791700594955,-0.6557773091308241,-0.7525903253403855,-0.05915596656500856,-0.042319669704881484,-0.8617515933513714,0.01039504900000058,1.2498476611945725e-15,10.205780654999998
521,242.282,0.6708860759493671,-0.04823411283834642,0.022625101174025924,-0.6255096188764001,-0.7763352437951279,-0.03461307939886657,-0.025973546959457295,-0.9028622498512333,0.013650856800000517,1.247854053894118e-15,10.189501615999998
522,242.359,0.7763157894736842,-0.04893010518937802,0.021832772207987888,-0.5974299544235009,-0.7983636621206115,-0.01184437684714458,-0.010809071641413232,-0.9410010516643581,0.016671305000000445,1.2460045627840579e-15,10.174399374999998
523,242.518,0.5921052631578947,-0.05072906408461915,0.01786439779928918,-0.5337382336547459,-0.8418092129195052,0.014461435496807255,0.008466836579144049,-0.9994540286064156,0.0196133,1.2433960597379212e-15,10.1530993312
524,242.565,0.5205479452054794,-0.05135631504387876,0.01607580976901773,-0.5134043560626534,-0.8541127493672276,0.016771432153880605,0.01098766780272115,-1.0113745677471162,0.0196133,1.2429444956746857e-15,10.149412030799999
525,242.679,0.11864406779661017,-0.05287773226421073,0.011737532418997183,-0.46408388700948805,-0.8839553696872379,0.022374402768910152,0.017102024387568353,-1.0402882158756268,0.0196133,1.241849212627689e-15,10.140468366
526,242.759,0.6101694915254238,-0.05359845979189493,0.008506862607454898,-0.42576102963258167,-0.9011759928059393,0.019661036040634364,0.016716874949634045,-1.0509222388267503,0.0196133,1.2410805929455862e-15,10.13419211
527,242.865,0.6909090909090909,-0.054522777957715235,0.00420977172942194,-0.3746553501069039,-0.923664580057035,0.0154788257516916,0.015793511815368897,-1.064159349918367,0.0196133,1.2400621718667998e-15,10.125876070799999
528,243.017,0.8974358974358975,-0.055031945071482076,-0.00169864024318341,-0.29858114207299685,-0.9506854991205811,0.006367471808567766,0.01480199002474534,-1.0759507865905762,0.0196133,0.003255807800001177,10.1172069922
529,243.119,0.7627118644067796,-0.05491825600385379,-0.005522102921999806,-0.24597457640340742,-0.9659020824170027,-0.001484035672620114,0.014322141893207884,-1.0798523807525635,0.0196133,0.007256921000001328,10.113205879
530,243.187,0.7457627118644068,-0.05475400515589553,-0.00804617718372388,-0.2108526120558548,-0.9758387195598702,-0.007322505220359237,0.013862951047368881,-1.0824445528813098,0.0196133,0.009923860956177095,10.110070095219122
531,243.269,0.6796875,-0.05224475233935798,-0.010439317860085656,-0.16716923040888,-0.9823931120206945,-0.03014742163384873,0.009669873617640963,-1.0853381175918886,0.0196133,0.013127627091634949,10.094051264541832
532,243.359,0.7578125,-0.04949069436998719,-0.013065935675604982,-0.11922405543048752,-0.9895869574045268,-0.055199159160852294,0.00506771546306101,-1.0885139812986218,0.0196133,0.016643955776893978,10.076469621115535
533,243.519,0.5352941176470588,-0.04254362835532244,-0.0164478309264305,-0.03323891418699042,-0.9963447847223558,-0.08227059074554133,-0.008939843319065412,-1.0882355017834398,0.0196133,0.022921567469880933,10.028540225301203
534,243.599,0.5219512195121951,-0.03814227877175022,-0.017556271334841375,0.010092613998791522,-0.9969952842930795,-0.08790547741823818,-0.018579168934336622,-1.0854161494228258,0.0196133,0.026072298393575142,9.99703291606426
535,243.679,0.4241486068111455,-0.03374092918817644,-0.018664711743252647,0.05342414218458885,-0.9976457838638034,-0.09354036409093705,-0.028218494549611256,-1.082596797062211,0.0196133,0.02922302931727047,9.965525606827308
536,243.801,0.5258064516129032,-0.02667307298982549,-0.018159618610897845,0.11851085018244206,-0.9901379533738516,-0.08937462574243583,-0.045611509822307744,-1.0792090392112734,0.015023787800000384,0.03400946220000083,9.913071765800003
537,243.883,0.6526717557251909,-0.02191232690735384,-0.017757068235289195,0.16222910636939752,-0.9848475609766189,-0.08620822113752317,-0.05737925092131088,-1.076958210468292,0.01180720659999952,0.03722604340000169,9.877689372599995
538,244.042,0.46613545816733065,-0.013357312058873142,-0.014986069367837864,0.24546286531673583,-0.9668935589697677,-0.0724469423294063,-0.07618351989984569,-1.0745620679855346,0.0055701771999998395,0.0392266000000012,9.817554994799998
539,244.118,0.4236111111111111,-0.009420749195269184,-0.013212291173834205,0.2849006278256807,-0.9565747040042053,-0.06414891779422788,-0.08426577371358857,-1.0738610124588013,0.0025889556000000978,0.0392266000000012,9.790724000400001
540,244.218,0.5727272727272728,-0.004379596088470029,-0.01016813546894309,0.3385539214928635,-0.93960660392299,-0.05194972888116064,-0.09328724540048983,-1.0731115934486213,-0.0015365258064511513,0.03769007419355004,9.756667719354843
541,244.314,0.36363636363636365,0.00020174708622506827,-0.005922198400181458,0.3933436921349297,-0.916998634445145,-0.03785181910761122,-0.09894184960472908,-1.0727145836649952,-0.005874951612902669,0.033351648387098524,9.726298738709682
542,244.435,0.38613861386138615,0.00515013110070272,-0.000555008193070786,0.45460291294206784,-0.8899352466273622,-0.019032851625037612,-0.10500257130541138,-1.0135880797153762,-0.010984834098939699,0.028241765901061488,9.691707745406362
543,244.507,0.3069306930693069,0.006836925421099866,0.0026623536062014854,0.4791803059926201,-0.8760118962023368,-0.006236467918532582,-0.10698519007371939,-0.8891409210097252,-0.0134798121908127,0.025746787809188487,9.676737876855125
544,244.622,0.3157894736842105,0.009531110793956528,0.0078011953689282425,0.5184358643372539,-0.8537732114956981,0.014202200501580463,-0.1101518728286559,-0.6903711536326356,-0.017464846643110016,0.021761753356891164,9.65282767014134
545,244.719,0.23684210526315788,0.011461154962738588,0.012571090044413539,0.5447002490502125,-0.8383030871881291,0.026366892792284376,-0.1107419794797899,-0.5327507007122089,-0.020986230999999866,0.01961330000000118,9.637191088000002
546,244.769,0.13636363636363635,0.012143336158923677,0.015427359589654969,0.5519867040144856,-0.8333308406842851,0.028003441505134365,-0.1091460531949995,-0.46066838383673475,-0.02294756100000031,0.01961330000000118,9.633268428
547,244.879,0.20512820512820512,0.013644134790530327,0.021711152589183845,0.5680169049358808,-0.8223918983758324,0.03160384867340304,-0.10563501536846186,-0.30208728671074897,-0.02726248699999973,0.01961330000000118,9.624638576
548,245.006,0.1794871794871795,0.015522290879969475,0.02836970469111896,0.5801342567209389,-0.8138173926394757,0.030291068720152595,-0.10195058210200046,-0.18658772858965375,-0.02941995,0.016800237051793954,9.617510587051793
549,245.099,0.1875,0.01697897671258194,0.03291205151058768,0.5854329980149011,-0.8098067229708932,0.0262701316510306,-0.09945906772912767,-0.13981775791047185,-0.02941995,0.013166697410360178,9.613877047410359
550,245.222,0.16129032258064516,0.019118175391756746,0.038755914318039646,0.5912913220869229,-0.805281791798985,0.020986854895949106,-0.09837428241968177,-0.09001046802103409,-0.027968565799999758,0.009806650000001178,9.609065615799999
551,245.31,0.1935483870967742,0.021002221776281894,0.042664572407675044,0.5935707902917204,-0.8033407023892046,0.01726471446454525,-0.10127399116754532,-0.07441391982138156,-0.024516625,0.009806650000001176,9.605613675
552,245.359,0.2857142857142857,0.022051293058574523,0.04484098429849521,0.5948400396330283,-0.802259868513304,0.01519215899705859,-0.10288860172033332,-0.06572947821020962,-0.022594521599999744,0.009806650000001176,9.603691571599999
