,time,img_sim,orientation.x,orientation.y,orientation.z,orientation.w,angular_velocity.x,angular_velocity.y,angular_velocity.z,linear_acceleration.x,linear_acceleration.y,linear_acceleration.z
0,104.591,0.976,-0.0012360246931669787,0.0004614778826122797,-0.7058568706471015,-0.7083532574661637,0.0006428987392046982,-0.0006338071989520112,-0.000626254876676414,0.0,-0.0098066499999988,9.80665
1,104.644,0.996,-0.0012363873526325465,0.0004623030682802498,-0.7058542624465033,-0.7083558553133047,0.0006359655554184595,-0.0006352569191857051,-0.000632981511963798,0.0,-0.0098066499999988,9.80665
2,104.718,0.992,-0.0012366514536253195,0.0004634929745285885,-0.7058506301719044,-0.7083594735204719,0.000636090276642673,-0.000637063638292133,-0.0006413957190459534,0.0,-0.0098066499999988,9.80665
3,104.804,0.988,-0.0012363718440522992,0.00046496726250630646,-0.7058464315515826,-0.7083636567323915,0.0006599748439546084,-0.0006386369312812967,-0.0006488072160150737,0.0,-0.0098066499999988,9.80665
4,104.933,0.992,-0.0012359524296927686,0.0004671786944728835,-0.7058401336210997,-0.7083699315502711,0.0006958016949225134,-0.0006409968707650422,-0.0006599244614687548,0.0,-0.0098066499999988,9.80665
5,105.002,0.986,-0.0012393772968502057,0.0004659462141755871,-0.7058373897206095,-0.7083726604198376,0.0007042505185877188,-0.0006398570772300291,-0.000669763478086283,0.0,-0.0098066499999988,9.80665
6,105.123,0.986,-0.0012463431229093748,0.00046314956890787404,-0.7058327422921268,-0.7083772807878471,0.0007162482250329652,-0.0006372264556039545,-0.0006880413243503607,0.0,-0.0098066499999988,9.80665
7,105.231,0.972,-0.001251548220801632,0.000461734077523352,-0.705828360292012,-0.7083816388098597,0.0007287480931898404,-0.0006351445013587942,-0.0006871722563562453,0.0,-0.0098066499999988,9.80665
8,105.324,0.986,-0.0012539600255525036,0.00046272533893920075,-0.7058241085815846,-0.7083858702304736,0.000743175063028254,-0.0006338957933351122,-0.0006512819052373706,0.0,-0.0098066499999988,9.80665
9,105.404,0.994,-0.0012560346963059416,0.0004635780369313286,-0.7058204511962707,-0.7083895101621845,0.0007555853596634477,-0.0006328216358953858,-0.0006204084849200608,0.0,-0.0098066499999988,9.80665
10,105.524,0.99,-0.001258446904965422,0.00046441158506078435,-0.7058159213644517,-0.7083940187092548,0.000747797605283775,-0.0006316827705794181,-0.0006348560938734358,0.0,-0.0098066499999988,9.80665
11,105.617,0.986,-0.0012600745992973426,0.00046490367305660336,-0.705812741110556,-0.708397184158831,0.0007326402674364134,-0.0006309633455491921,-0.0006670436917537075,0.0,-0.0098066499999988,9.80665
12,105.711,0.99,-0.001261519679557325,0.0004655844110252873,-0.7058092800259281,-0.7084006295950979,0.0007205118518704396,-0.0006319393182448189,-0.0006934446196804646,0.0,-0.0098066499999988,9.80665
13,105.799,0.996,-0.0012615923449234142,0.0004673946731739256,-0.7058044621007642,-0.708405428489601,0.0007295767236577325,-0.0006437482174913427,-0.0006789280317311511,0.0,-0.0098066499999988,9.80665
14,105.954,0.994,-0.001261723633340663,0.00047053869379854975,-0.7057961486922926,-0.7084137090210868,0.0007414245246764052,-0.0006615963507101703,-0.0006511664535082688,0.0,-0.0098066499999988,9.80665
15,106.023,0.99,-0.0012618012988283417,0.0004716789092157508,-0.7057934543619099,-0.708416392462614,0.0007226965099107478,-0.0006523408155771907,-0.0006260306217882322,0.0,-0.0098066499999988,9.80665
16,106.11,0.986,-0.0012618992248780237,0.0004731165721330913,-0.7057900571627317,-0.7084197759323658,0.0006990829260757887,-0.0006406707930182164,-0.0005943376165760122,0.0,-0.0098066499999988,9.80665
17,106.229,0.992,-0.0012623531487281393,0.0004747526614418207,-0.7057848930116901,-0.7084249189782256,0.0006734243284941452,-0.0006284635532151176,-0.0005728752532645635,0.0,-0.0098066499999988,9.80665
18,106.287,0.99,-0.0012630370588734366,0.0004750723896688464,-0.7057816278913847,-0.7084281704489342,0.0006705201278654397,-0.0006279436008790966,-0.0005940630722821521,0.0,-0.0098066499999988,9.80665
19,106.445,0.992,-0.0012649515645507213,0.0004758681626161979,-0.7057727602397329,-0.7084370009729456,0.0006629335472597644,-0.000626975285373262,-0.0006510002244099536,0.0,-0.0098066499999988,9.80665
20,106.51,0.986,-0.001267389819120117,0.0004737821263185626,-0.7057699781118931,-0.7084397696154944,0.0006702368704638654,-0.000640956037358255,-0.0006493500406470366,0.0,-0.0098066499999988,9.80665
21,106.648,0.964,-0.0012725664211289869,0.00046935331079435346,-0.7057640714404795,-0.708445647656598,0.0006857423874202606,-0.0006706382492648479,-0.0006458465735811519,0.0,-0.0098066499999988,9.80665
22,106.694,0.986,-0.001274291955131944,0.0004678770389529501,-0.7057621025500083,-0.7084476070036325,0.0006909108930723935,-0.000680532319900381,-0.0006446787512258568,0.0,-0.0098066499999988,9.80665
23,106.856,0.99,-0.0012735716744040058,0.0004714119953730176,-0.7057536783613213,-0.7084559980569455,0.0006513911403943694,-0.0006770292190093625,-0.0006614527855144469,0.0,-0.0098066499999988,9.80665
24,106.923,0.992,-0.0012732026116197052,0.00047296543188101765,-0.7057501786795812,-0.7084594840395135,0.0006344421809463161,-0.0006751788932145859,-0.0006686088876152529,0.0,-0.0098066499999988,9.80665
25,107.034,0.992,-0.0012740988706574634,0.00047506374964625335,-0.7057449057095508,-0.7084647337587561,0.0006582641938759273,-0.0006719359807336724,-0.000686053853438523,0.0,-0.0098066499999988,9.80665
26,107.132,0.986,-0.0012751827151546177,0.00047682409389602484,-0.7057403521676435,-0.7084692666652203,0.000689367244132444,-0.0006690384368937651,-0.0007025402706072957,0.0,-0.0098066499999988,9.80665
27,107.21,0.998,-0.0012762321791879023,0.000478246571674439,-0.7057366442783346,-0.7084729574355377,0.0007103046439703054,-0.0006688001422870721,-0.0007136486549267678,0.0,-0.0098066499999988,9.80665
28,107.291,0.994,-0.0012786411893979943,0.0004798747884880222,-0.7057322031390396,-0.7084773758906138,0.0007050857450928036,-0.0006831553350241059,-0.0007109661742761241,0.0,-0.0098066499999988,9.80665
29,107.392,0.994,-0.0012816450169439114,0.00048190503414446533,-0.705726665422141,-0.7084828853222518,0.0006985782292085115,-0.0007010550197949744,-0.0007076213527240871,0.0,-0.0098066499999988,9.80665
30,107.538,0.994,-0.00128402506439,0.0004850123689090704,-0.7057199437179066,-0.7084895743918642,0.0006876580622838627,-0.0006768953712222727,-0.0007039648057384924,0.0,-0.0098066499999988,9.80665
31,107.614,0.99,-0.0012847156749817876,0.0004866780978813202,-0.7057168033728306,-0.7084927000553677,0.0006815507074379957,-0.000650336888615084,-0.0007023907435888591,0.0,-0.0098066499999988,9.80665
32,107.742,0.992,-0.0012870401365739467,0.0004873157094435034,-0.7057110842309396,-0.7084983920807237,0.0006823404294597678,-0.0006283059483394039,-0.0006975260008565651,0.0,-0.0098066499999988,9.80665
33,107.817,0.99,-0.0012896151296905975,0.00048542502086372996,-0.7057072838915345,-0.7085021740355244,0.0006943717932544372,-0.0006391063798218963,-0.0006923633717507791,0.0,-0.0098066499999988,9.80665
34,107.938,0.998,-0.0012937694519187953,0.00048237470995502813,-0.705701152677294,-0.7085082755892693,0.0007137823935098416,-0.0006565310759469881,-0.0006840343301267757,0.0,-0.0098066499999988,9.80665
35,108.084,0.976,-0.0012943362115182362,0.00048465226485408747,-0.7056941070377537,-0.7085152906032385,0.0007227460241665545,-0.0007097561901900955,-0.0006835509966549579,0.0,-0.0098066499999988,9.80665
36,108.189,0.992,-0.0012946537452963212,0.00048641093471639657,-0.7056890471064081,-0.7085203286139419,0.0007288995846010948,-0.0007486868562409654,-0.0006833971988271513,0.0,-0.0098066499999988,9.80665
37,108.269,0.99,-0.0012969615643813443,0.00048687909938155134,-0.7056850603942237,-0.708524294785507,0.0007445296983006528,-0.0007369188781903693,-0.0006709775357621188,0.0,-0.0098066499999988,9.80665
38,108.291,1.0,-0.0012976682297600618,0.00048697745534986386,-0.705683959463474,-0.708525389933756,0.0007492093975199581,-0.0007322384890320955,-0.0006671332742315618,0.0,-0.0098066499999988,9.80665
39,108.46,0.992,-0.0013028860927761935,0.0004878663370275477,-0.7056755377471733,-0.7085337676346997,0.0007804335986901845,-0.0006978691178229046,-0.0006447755915098286,0.0,-0.0098066499999988,9.80665
40,108.53,0.996,-0.0013042673478972774,0.000488728289649974,-0.7056721806885483,-0.7085371079611265,0.0007758701497830217,-0.0006895014947798494,-0.0006620807019207297,0.0,-0.0098066499999988,9.80665
41,108.64,0.986,-0.0013064378916589807,0.0004900827866280725,-0.7056669053107092,-0.7085423570455114,0.0007686990157860524,-0.0006763523728550498,-0.0006892744468521424,0.0,-0.0098066499999988,9.80665
42,108.738,0.99,-0.0013077913965754667,0.0004916069542307196,-0.7056620153997935,-0.7085472235355051,0.0007596385742848122,-0.0006669647036081493,-0.0007051754379062911,0.0,-0.0098066499999988,9.80665
43,108.818,0.986,-0.0013081483901661126,0.0004932603249025908,-0.7056577787006475,-0.7085514411208873,0.0007487987556184334,-0.0006623006595570286,-0.0007074239416397175,0.0,-0.0098066499999988,9.80665
44,108.939,0.994,-0.0013086883429719645,0.0004957610480437958,-0.7056513706931892,-0.7085578202187779,0.0007324035298855361,-0.0006552462929297088,-0.0007108248035365247,0.0,-0.0098066499999988,9.80665
45,109.003,0.99,-0.0013082051771546963,0.000496514850789283,-0.7056480903131562,-0.7085610874455105,0.000716129763469356,-0.0006577198530129834,-0.000716900406806762,0.0,-0.0098066499999988,9.80665
46,109.154,0.99,-0.0013070364174116833,0.0004982720488436541,-0.7056403547478334,-0.7085687920573234,0.0006774491512295124,-0.0006637882808815704,-0.0007313952011402369,0.0,-0.0098066499999988,9.80665
47,109.23,1.0,-0.0013084208070470338,0.0004977794442342466,-0.7056362219849164,-0.708572905496031,0.0006738208321621668,-0.0006684356267214762,-0.0007326886261580501,0.0,-0.0098066499999988,9.80665
48,109.344,0.992,-0.0013152929463222055,0.0004936929489335723,-0.7056294409340248,-0.7085796484564831,0.0007068861064155853,-0.0006792793752412819,-0.0007200377721315386,0.0,-0.0098066499999988,9.80665
49,109.458,0.978,-0.0013208461768453592,0.0004906552657101058,-0.7056231409769553,-0.7085859140009886,0.0007390350611491767,-0.0006826084686611285,-0.0007059197935023658,0.0,-0.0098066499999988,9.80665
50,109.488,0.994,-0.001321071944046929,0.0004908384467025786,-0.7056219338024652,-0.7085871155651294,0.0007466368656868059,-0.0006764445005727006,-0.0007008300718669332,0.0,-0.0098066499999988,9.80665
51,109.617,0.99,-0.001322042743013679,0.0004916261249702115,-0.7056167429521576,-0.7085922822909351,0.0007793246251986112,-0.0006499394377924608,-0.0006789442688345734,0.0,-0.0098066499999988,9.80665
52,109.742,0.99,-0.0013228336763678947,0.0004924746026516385,-0.7056116076755315,-0.7085973939136071,0.0007968037949913006,-0.0006319454376946906,-0.0006560695055891196,0.0,-0.0098066499999988,9.80665
53,109.806,0.994,-0.001323092409520031,0.0004929922331166329,-0.7056088755209597,-0.7086001136864124,0.0007918935126567984,-0.000630240030206588,-0.000642729438698794,0.0,-0.0098066499999988,9.80665
54,109.918,0.994,-0.0013235451925362695,0.0004938980864303734,-0.7056040942504589,-0.7086048732888218,0.0007833005185714178,-0.000627255567102408,-0.0006193843216407198,0.0,-0.0098066499999988,9.80665
55,110.005,0.984,-0.0013249671891437955,0.0004948276339055065,-0.7056005309232753,-0.7086084181846712,0.0007711497522462675,-0.0006374601957039414,-0.000625956907614877,0.0,-0.0098066499999988,9.80665
56,110.113,0.986,-0.0013272987254808915,0.0004961010780147321,-0.7055961872174722,-0.7086127381636861,0.0007531687010054457,-0.0006567540423024052,-0.0006471886243365524,0.0,-0.0098066499999988,9.80665
57,110.209,0.996,-0.001329338601632445,0.0004972672035981052,-0.7055922223954958,-0.7086166814781572,0.000738062285982397,-0.0006733939150170544,-0.0006649295798951132,0.0,-0.0098066499999988,9.80665
58,110.322,0.988,-0.001331164101640612,0.000499243237592951,-0.7055857236310176,-0.708623147563381,0.0007357607461334326,-0.0006839719809170551,-0.0006658309110328244,0.0,-0.0098066499999988,9.80665
59,110.42,0.992,-0.0013327472786388455,0.0005009569661902507,-0.7055800875343904,-0.7086287553187078,0.0007337647204237113,-0.0006931458787772326,-0.0006666125964442908,0.0,-0.0098066499999988,9.80665
60,110.497,0.988,-0.0013351227053526743,0.0004997668391153177,-0.7055763219141488,-0.708632501064893,0.0007319670182277355,-0.0006963747992115313,-0.0006804825995720253,0.0,-0.0098066499999988,9.80665
61,110.607,0.984,-0.001339248140989898,0.0004964257121679457,-0.7055713711842473,-0.7086374249520345,0.0007292504757173475,-0.0006984134345467009,-0.0007088720844065869,0.0,-0.0098066499999988,9.80665
62,110.685,0.99,-0.0013421734498962933,0.0004940565494234454,-0.7055678606666809,-0.708640916435644,0.0007273242001190723,-0.0006998590123298211,-0.0007290028100165497,0.0,-0.0098066499999988,9.80665
63,110.812,0.966,-0.0013436489312742485,0.0004942444975338244,-0.7055617108694182,-0.7086470365526022,0.000698647775814803,-0.0006870305790233571,-0.0007205530278929567,0.0,-0.005330585684646118,9.820078192946058
64,110.909,0.982,-0.0013443878191202816,0.000494865565688697,-0.7055569625567583,-0.708651762350788,0.0006737305965811704,-0.00067544040604421,-0.000709232909235855,0.0,-0.0013835107883802093,9.831919417634856
65,111.017,0.99,-0.0013462361629270477,0.00049456202763828,-0.7055521677514248,-0.7086565328721836,0.0006816870855102531,-0.0006729765220314207,-0.0007063630605549659,0.0,-0.002812760077518151,9.827631669767442
66,111.135,0.984,-0.001348770535339135,0.0004937308738402273,-0.7055471759554571,-0.7086614985291316,0.0007083014203343825,-0.0006755257220289045,-0.0007081139700075742,0.0,-0.007297972093022455,9.814176033720928
67,111.204,0.986,-0.0013503404672573563,0.0004932044811977235,-0.7055442054266922,-0.7086644533991744,0.0007240528328470702,-0.0006780710659150817,-0.0007095427179053701,0.0,-0.0098066499999988,9.80665
68,111.324,0.988,-0.0013564365306988492,0.0004907440808099312,-0.7055370651350305,-0.7086715521471333,0.0007586699779674319,-0.0007228518722659369,-0.0007275197443690288,0.0,-0.0098066499999988,9.80665
69,111.372,0.996,-0.0013588749560754464,0.0004897599206548143,-0.7055342090183657,-0.7086743916463168,0.0007725168360155765,-0.000740764194806279,-0.0007347105549544923,0.0,-0.0098066499999988,9.80665
70,111.517,0.992,-0.0013662354662565992,0.0004863481407048678,-0.7055258908355707,-0.7086826610695188,0.0007702632184057377,-0.0007224972362092247,-0.0007390055871774381,0.0,-0.0098066499999988,9.80665
71,111.644,0.99,-0.0013726774492533766,0.00048298083188166944,-0.7055188727672098,-0.7086896376743433,0.0007302079321780446,-0.0006439739322946766,-0.0007277127060237832,0.0,-0.0098066499999988,9.80665
72,111.711,0.992,-0.0013758282597097237,0.00048124187321801307,-0.7055151792778677,-0.7086933097587781,0.0007123313693295198,-0.0006088693324407495,-0.0007216804272805649,0.0,-0.0098066499999988,9.80665
73,111.839,0.994,-0.0013787978948893486,0.00047838132087070067,-0.7055082333257817,-0.7087002205989827,0.0007182535384360073,-0.0006196275415711508,-0.0007092374057888429,0.0,-0.0098066499999988,9.80665
74,111.922,0.992,-0.0013807235177011367,0.00047652643145799033,-0.7055037293099758,-0.7087047018469279,0.0007220936949659953,-0.0006266035678041452,-0.0007011688840403045,0.0,-0.0098066499999988,9.80665
75,112.006,0.998,-0.0013858140851514445,0.0004732137381869883,-0.70549940329459,-0.708709000501169,0.0007222145454924687,-0.0006619995161686942,-0.0007242200324734867,0.0,-0.0098066499999988,9.80665
76,112.13,0.974,-0.0013950774159709866,0.0004675246023900104,-0.7054931465501157,-0.7087152144514575,0.0007202970395068754,-0.0007300223235460178,-0.0007756231222821178,0.0,-0.0098066499999988,9.80665
77,112.231,0.992,-0.0014014261588187655,0.0004642040282011727,-0.7054881347382866,-0.7087201931759981,0.0007313992443960148,-0.0007603961112909026,-0.0007827593432739396,0.0,-0.0098066499999988,9.80665
78,112.407,0.988,-0.0014085579821160278,0.0004627332425607363,-0.7054796786466861,-0.708728597424345,0.0007923596750479187,-0.0007310699853114788,-0.0006810640888288624,0.0,-0.0098066499999988,9.80665
79,112.423,0.996,-0.0014092063296885064,0.00046259953477524205,-0.7054789099110861,-0.708729361446922,0.0007979015323799117,-0.0007284039738588029,-0.0006718190656974888,0.0,-0.0098066499999988,9.80665
80,112.532,0.992,-0.0014108249005274822,0.000462773559734825,-0.7054744707094249,-0.708733776918765,0.0007531453544894854,-0.0007232076992901664,-0.0006877280926952758,0.0,-0.0098066499999988,9.80665
81,112.639,0.998,-0.0014116791228388611,0.00046322921786775173,-0.7054703224136893,-0.7087379041195159,0.0006875486339644573,-0.0007215107749613335,-0.0007240567672203565,0.0,-0.0098066499999988,9.80665
82,112.747,0.986,-0.0014128280586917052,0.00046329832229928395,-0.7054657629272969,-0.7087424402198683,0.0006670643371641974,-0.0007188177386905487,-0.0007300769501555052,0.0,-0.0098066499999988,9.80665
83,112.8,0.996,-0.0014136045897412115,0.0004630423233780248,-0.7054632491327908,-0.708744940984596,0.0006909318127248191,-0.0007167689874671647,-0.0007102960707132855,0.0,-0.0098066499999988,9.80665
84,112.911,0.994,-0.001415230909486404,0.00046250617469387824,-0.7054579843933534,-0.7087501784352518,0.0007409184124838613,-0.0007124782066030959,-0.0006688681911267464,0.0,-0.0098066499999988,9.80665
85,113.042,0.986,-0.0014177366989123561,0.00046348248661800016,-0.7054519144899172,-0.7087562144166794,0.000758911846394374,-0.0007203773507294632,-0.0006851691390391333,0.0,-0.0098066499999988,9.80665
86,113.113,0.988,-0.0014192062067233558,0.00046431731314326566,-0.7054486519443632,-0.7087594582509645,0.0007608751231502442,-0.000727121206944356,-0.0007063890398303819,0.0,-0.0098066499999988,9.80665
87,113.24,0.996,-0.0014259598229916957,0.0004627705717894675,-0.7054419276097145,-0.7087661384978134,0.0008521800294382411,-0.0007357098112468807,-0.0007255897004408449,0.0,-0.0098066499999988,9.80665
88,113.299,0.986,-0.001433941478355867,0.0004584820416074594,-0.7054377603050335,-0.7087702728514025,0.000997694669320171,-0.0007356197875401195,-0.0007124840353191762,0.0,-0.0098066499999988,9.80665
89,113.382,0.994,-0.0014451699087834277,0.00045244902457175447,-0.705431897825567,-0.7087760889759429,0.0012024017050862312,-0.0007354931440204383,-0.0006940472521819173,0.0,-0.0098066499999988,9.80665
90,113.496,0.964,-0.0014472963804684643,0.00045205481922562166,-0.7054280728107888,-0.708779891793106,0.0010085422512515296,-0.0007483618565292764,-0.0006999955243649122,0.0,-0.03457154462025074,9.767733737025319
91,113.632,0.988,-0.0014498332238821925,0.0004515845391635684,-0.7054235096352639,-0.7087844284872654,0.0007772713238697436,-0.0007637140047854367,-0.0007070917087235739,0.0,-0.06411562943038057,9.72130731803797
92,113.717,0.986,-0.0014508980362900722,0.0004517836779481558,-0.7054203098878489,-0.7087876107540366,0.0006716838643814528,-0.0007700765586028303,-0.0007062858695952352,0.0,-0.07317269615384345,9.707074784615386
93,113.806,1.0,-0.0014501190390659004,0.0004537855358944192,-0.7054156946983451,-0.7087922042584898,0.0007028196297815981,-0.0007649812925614506,-0.0006863799625781434,0.0,-0.04843770445343895,9.745944057287451
94,113.93,0.99,-0.0014490336946187397,0.00045657464134764026,-0.7054092645466767,-0.7087986041972784,0.0007461997973054001,-0.0007578822702116624,-0.0006586458898801702,0.0,-0.013975468825905932,9.80009899898786
95,113.98,0.988,-0.0014476124744494897,0.00045882841701903865,-0.7054073965796784,-0.7088004646555878,0.000753515681591691,-0.0007499848505028981,-0.0006539914914331319,0.0,-0.0098066499999988,9.80665
96,114.143,0.988,-0.0014416050931389897,0.00046775329052990797,-0.7054023197068344,-0.7088055235802451,0.0007631479727435127,-0.0007172047727360128,-0.0006479396726162993,0.0,-0.0098066499999988,9.80665
97,114.215,0.988,-0.0014387162627522607,0.00047203381717407115,-0.7053997538290447,-0.7088080801900154,0.0007622260908486612,-0.000700873110498134,-0.0006503522813813251,0.0,-0.0098066499999988,9.80665
98,114.32,0.994,-0.0014326007832346339,0.00048101173054703524,-0.705393397092958,-0.7088144125736126,0.0007190175947763137,-0.0006620777947678793,-0.000695000189097525,0.0,-0.0098066499999988,9.80665
99,114.471,0.99,-0.0014263312675283893,0.0004915340976132629,-0.7053863690983325,-0.7088214120283859,0.0006886932816810142,-0.0006658035234954109,-0.0007018827794430159,0.0,-0.0098066499999988,9.80665
100,114.484,0.99,-0.001425984445939788,0.0004922574805897092,-0.705385925533421,-0.7088218536314461,0.0006885133715024076,-0.0006706718206539929,-0.0006980952457524864,0.0,-0.0098066499999988,9.80665
101,114.637,0.99,-0.0014219026226277858,0.0005007711417740446,-0.7053807051156177,-0.7088270509597698,0.0006863959670926516,-0.0007279679333665756,-0.0006535188877023764,0.0,-0.0098066499999988,9.80665
102,114.712,0.988,-0.0014199865289127311,0.0005046500132976891,-0.7053779862207104,-0.7088297577760236,0.0006862225623249456,-0.0007501924712279881,-0.0006386090233853019,0.0,-0.0098066499999988,9.80665
103,114.806,0.988,-0.00141836443161262,0.0005068048254004041,-0.705373109187665,-0.7088346126826627,0.0006939512984098963,-0.0007241708446876636,-0.0006837201756980911,0.0,-0.0098066499999988,9.80665
104,114.884,0.974,-0.0014170184359806129,0.0005085928609749976,-0.7053690622879041,-0.7088386412222142,0.0007003645049484731,-0.0007025784311754773,-0.0007211528340001967,0.0,-0.0098066499999988,9.80665
105,115.021,0.992,-0.0014138645017665959,0.0005132190708552562,-0.7053621126217479,-0.7088455597444869,0.0007209565476788327,-0.0007038004456690578,-0.0007366680006003546,0.0,-0.0098066499999988,9.80665
106,115.113,0.996,-0.0014113080790597898,0.000517150477211368,-0.705357533598141,-0.7088501184669188,0.0007399629696509719,-0.0007263529760416098,-0.000719201496765747,0.0,-0.0098066499999988,9.80665
107,115.239,0.99,-0.0014088908764643743,0.0005220291155552364,-0.7053511778220146,-0.7088564441465419,0.0007551110553916308,-0.0007543243327634237,-0.0007023698721575188,0.0,-0.0098066499999988,9.80665
108,115.317,0.984,-0.001408948496497216,0.0005243242916213819,-0.7053471221494042,-0.7088604779011765,0.0007488875379025634,-0.0007674598840673508,-0.0007021142497696741,0.0,-0.0098066499999988,9.80665
109,115.423,0.988,-0.0014090268006444115,0.0005274433770446061,-0.7053416105943181,-0.7088659596702952,0.0007404299372122904,-0.000785310761480384,-0.0007017668654990134,0.0,-0.0098066499999988,9.80665
110,115.565,0.994,-0.001408608611261281,0.0005285852152111079,-0.705333958967513,-0.7088735731068742,0.0007577037423859938,-0.0007622881269970429,-0.0007282878608847141,0.0,-0.0098066499999988,9.80665
111,115.63,0.99,-0.0014083709079514802,0.0005288392371121288,-0.7053304327320735,-0.7088770820123123,0.000768141401390177,-0.0007475970683857625,-0.0007428152905416119,0.0,-0.0098066499999988,9.80665
112,115.711,0.99,-0.0014082027964112077,0.0005291726458276113,-0.7053260123179622,-0.7088814804164832,0.0007804513419108831,-0.0007305494067645573,-0.0007571698008472261,0.0,-0.0098066499999988,9.80665
113,115.815,0.988,-0.0014097257209386457,0.0005298295477317973,-0.7053199813477417,-0.7088874775064692,0.0007867963402048993,-0.0007257586254745999,-0.0007247157151911284,0.0,-0.0098066499999988,9.80665
114,115.942,0.992,-0.0014115854460827286,0.0005306317260186398,-0.7053126166052607,-0.7088948008759712,0.0007945445592754764,-0.0007199083444762868,-0.0006850842836687796,0.0,-0.0098066499999988,9.80665
115,116.031,0.99,-0.001414060617577839,0.0005305151643680884,-0.7053080608289768,-0.7088993286981837,0.0007895547369116677,-0.000736300394237335,-0.0007104909122972496,0.0,-0.0098066499999988,9.80665
116,116.124,0.994,-0.0014166897502654006,0.0005303686236798729,-0.7053033223643609,-0.7089040379902602,0.0007839608397262053,-0.0007541761247011895,-0.0007389778982087596,0.0,-0.0098066499999988,9.80665
117,116.218,0.9899799599198397,-0.0014192848728330281,0.0005304307463528822,-0.7052984870581268,-0.7089088435066933,0.0007766886177823414,-0.000763774884823209,-0.0007617822244974519,0.0,-0.0098066499999988,9.80665
118,116.327,0.969939879759519,-0.0014219670023847882,0.0005316069977965814,-0.7052926391354374,-0.708914655291439,0.0007597569702381661,-0.0007304236043512294,-0.000756770322431135,0.0,-0.0098066499999988,9.80665
119,116.406,0.99,-0.0014239109311424863,0.0005324595103108222,-0.7052884007327541,-0.7089188675024015,0.0007474854091740371,-0.0007062515753852958,-0.0007531378429518772,0.0,-0.0098066499999988,9.80665
120,116.562,0.994,-0.0014267557189065348,0.0005341153881975093,-0.7052809409555973,-0.7089262820224592,0.0007405827924417766,-0.0007168900676204174,-0.0007551331602206285,0.0,-0.0098066499999988,9.80665
121,116.657,0.984,-0.001428265141116836,0.0005351175910187137,-0.705276602247974,-0.7089305946197603,0.0007402673793916146,-0.000736464604573406,-0.0007584052509628236,0.0,-0.0098066499999988,9.80665
122,116.754,0.99,-0.0014293811778247423,0.0005353078207311724,-0.7052712157027927,-0.7089359509384493,0.0007568290186285701,-0.0007462408113274346,-0.0007609244428898152,0.0,-0.0098066499999988,9.80665
123,116.813,0.9899799599198397,-0.0014298453140094243,0.0005350028592643373,-0.7052674563580558,-0.7089396900970707,0.000775428184507683,-0.0007470313060496537,-0.0007620417662630124,0.0,-0.0098066499999988,9.80665
124,116.924,0.9859719438877755,-0.0014307185193738255,0.0005344291181996136,-0.7052603836925337,-0.7089467247853245,0.0008104198355683896,-0.0007485185079846761,-0.0007641438492193667,0.0,-0.0098066499999988,9.80665
125,116.999,0.9899799599198397,-0.0014321723282589936,0.000534117566232002,-0.705256292946843,-0.7089507915205656,0.0008208812318215246,-0.0007372562382767314,-0.0007531231532302912,0.0,-0.0098066499999988,9.80665
126,117.134,0.9879759519038076,-0.001435434593465856,0.0005336136404675226,-0.7052494437189702,-0.7089575987623596,0.0008298628431087898,-0.0007078185192013307,-0.0007239903441572535,0.0,-0.0098066499999988,9.80665
127,117.212,0.9939879759519038,-0.0014373150016838275,0.0005334878766788866,-0.7052454139298518,-0.7089616037785836,0.0008293740155005934,-0.0006962160691465027,-0.0007114850459928262,0.0,-0.0098066499999988,9.80665
128,117.317,0.992,-0.0014397938324424424,0.0005352667217390767,-0.7052391357484734,-0.7089678425543139,0.000761833298549227,-0.0007442739447732715,-0.0007456179582205984,0.0,-0.0098066499999988,9.80665
129,117.429,0.988,-0.0014424379185849654,0.0005371641564699463,-0.7052324390216699,-0.7089744972484262,0.0006897898671344233,-0.0007955356787751674,-0.0007820263979302286,0.0,-0.0098066499999988,9.80665
130,117.498,0.992,-0.0014454562660102675,0.0005359521815999033,-0.7052288052504633,-0.708978106549182,0.0006867906181627182,-0.0007945322881103932,-0.0007769620984533794,0.0,-0.0098066499999988,9.80665
131,117.644,0.99,-0.0014528040330591678,0.0005317407039081182,-0.7052214566668709,-0.7089854043402487,0.0007090722248911091,-0.0007698689866091858,-0.000747227007037739,0.0,-0.0098066499999988,9.80665
132,117.717,0.9739478957915831,-0.0014559702368676668,0.0005300414020234462,-0.7052177125374822,-0.7089891234092588,0.0007213804969941228,-0.0007583015917777277,-0.000734646162422266,0.0,-0.0098066499999988,9.80665
133,117.818,0.9939879759519038,-0.0014567803102534306,0.0005305488269479394,-0.7052120411285486,-0.7089947625079236,0.0007466206804287329,-0.0007476724801134814,-0.0007333223973035288,0.0,-0.0098066499999988,9.80665
134,117.917,0.992,-0.0014575743425820505,0.0005310462038541257,-0.7052064820247423,-0.7090002899412683,0.0007713610582507776,-0.0007372538459079327,-0.0007320248453554596,0.0,-0.0098066499999988,9.80665
135,118.006,0.992,-0.0014584917116311148,0.0005316853891344892,-0.7052016271761249,-0.7090051163931561,0.0007715020149134947,-0.0007330655364512496,-0.0007363702984548578,0.0,-0.0098066499999988,9.80665
136,118.137,0.984,-0.0014599943331250096,0.0005327699470286377,-0.7051945880982683,-0.7090121137294836,0.0007551689182037083,-0.0007307760392905039,-0.0007468917092410262,0.0,-0.0098066499999988,9.80665
137,118.217,0.99,-0.0014610938953489752,0.000533327642543606,-0.7051902207558407,-0.7090164548814427,0.0007529367185121414,-0.0007303965069949015,-0.0007505365008045542,0.0,-0.0098066499999988,9.80665
138,118.306,0.99,-0.0014632713202748632,0.0005333993322594112,-0.7051850019433904,-0.7090216408885882,0.0007910585254201734,-0.0007353166483731969,-0.0007400086152436003,0.0,-0.0098066499999988,9.80665
139,118.44,0.986,-0.001466549690387998,0.0005335072695843315,-0.7051771444055439,-0.7090294490341781,0.0008484554032367617,-0.0007427245016843384,-0.0007241576414776696,0.0,-0.0098066499999988,9.80665
140,118.492,0.992,-0.0005594056221925452,0.0004165869745915368,-0.7051912141730915,-0.7090140478958312,-0.007704183365063148,0.012286471204782424,-0.00022202118568060856,0.0,-0.0098066499999988,9.80665
141,118.631,0.896,0.0022431906080441766,5.5415757750277574e-05,-0.7052359420130029,-0.708965215569379,-0.03413159577973294,0.05253340438387116,0.0013264648223129502,0.0,-0.0098066499999988,9.80665
142,118.721,0.6746987951807228,0.00398103325836956,-0.00023471670229694076,-0.7052592741877698,-0.7089374992084825,-0.04378020720471825,0.0676693032177538,0.001993174858462098,0.0,-0.009120588065842027,9.905442918518572
143,118.835,0.4647887323943662,0.005764634108570404,-0.0009083401027854562,-0.7052582147538365,-0.708923613963442,-0.015410749111402375,0.02742743906431036,0.0010106046825413939,0.0,-0.004519937448558568,10.567936607407379
144,118.897,0.30443548387096775,0.0067346626411360425,-0.001274696689016154,-0.7052576385704693,-0.7089160623389463,1.8254413036850048e-05,0.0055415129457648815,0.0004762244114264768,0.0,-0.0020178292181054665,10.92824019259262
145,119.027,0.16910229645093947,0.005999515780055727,-0.001225332018836919,-0.7052595593203174,-0.7089189661974417,0.01569742935524845,-0.021238731608113792,7.230622883241357e-05,0.0,1.386992160783126e-15,11.325650479377433
146,119.13,0.20422535211267606,0.004045827312803633,-0.0007813845989070502,-0.7052626305406543,-0.7089305458156884,0.01986433319196624,-0.03299399818282871,0.00010711205185568956,0.0,1.4038384275266878e-15,11.463210686575875
147,119.222,0.3115942028985507,0.002306288370595954,-0.000388326749478506,-0.7052638364228426,-0.7089400434675237,0.022327855476699902,-0.04008714455910238,0.0003808748691451121,0.0,1.4136990987817692e-15,11.543729177800829
148,119.315,0.34375,0.0005707115120317371,-5.449189759746146e-06,-0.7052586665237726,-0.7089461314255368,0.019588614786932447,-0.03309982232131124,0.0016661177778663563,0.0,1.4021129942635548e-15,11.44912145477178
149,119.444,0.40625,-0.001836701549847661,0.0005256390382372433,-0.7052514953734497,-0.7089545760124581,0.0157890228624163,-0.0234077301850203,0.003448874070608728,0.0,1.3860419460608704e-15,11.317891387344389
150,119.524,0.3953488372093023,-0.0025916040645357027,0.0005920488661816373,-0.7052616171145927,-0.7089412907890047,0.014246283820195998,-0.019056376569871438,0.002690179829063481,0.0,1.3759497950924074e-15,11.235482720817114
151,119.582,0.3058823529411765,-0.0031321349895977193,0.0006377828682870557,-0.7052690890794587,-0.7089314890200006,0.013135264569654349,-0.015916872457945513,0.0021230176094365234,0.0,1.368631832895344e-15,11.175727024708173
152,119.747,0.36470588235294116,-0.0045283194850756,0.0007172471684793706,-0.7052856132431142,-0.7089082036379958,0.010550758480781403,-0.009126816250261701,0.0005893000426843298,0.0,1.343302679304363e-15,10.968898789754094
153,119.836,0.2786885245901639,-0.0050778344605520226,0.0006872684616237327,-0.7052877194300948,-0.708902258715028,0.009985419463549479,-0.00854430045382898,-0.00012325075193552859,0.0,1.3231520070545589e-15,10.804356063934424
154,119.91,0.26851851851851855,-0.0055347345525211785,0.0006623423458111803,-0.7052894706417416,-0.7088973157453694,0.009515362303154399,-0.008059961477019756,-0.0007157087160014718,0.0,1.3063975155210142e-15,10.667545258196723
155,120.044,0.3425925925925926,-0.006188728685875723,0.000607948754171666,-0.7052943842374843,-0.7088870532453961,0.008707222860855183,-0.006886237965131447,-0.0007178288015406985,0.0,1.2745252313417413e-15,10.40728830736434
156,120.191,0.26993865030674846,-0.006836306305281409,0.0005445476944674986,-0.7053004767198966,-0.7088752665273492,0.007838028382018965,-0.005479089247943504,-0.0002886747398554237,0.0,1.2389430556513636e-15,10.116737793410836
157,120.284,0.3103448275862069,-0.007057583080141278,0.00046295384560141674,-0.7053016413363694,-0.7088719943273173,0.006720401350515982,-0.0039673734096034394,-4.6350585762386636e-05,0.0,1.2180042103602252e-15,9.94575914629628
158,120.399,0.22727272727272727,-0.007293344588474164,0.0003537226014837981,-0.7053025409605417,-0.7088687889363259,0.005224309579963669,-0.0019731668692174148,0.0002474338107276711,0.0,1.1924280345958065e-15,9.736913822222222
159,120.472,0.34285714285714286,-0.0075393412643499835,0.0002592681400495848,-0.7053027219221972,-0.7088659487996751,0.007101320529577021,-0.0035474113656121607,0.00028553760277780986,0.0,1.177381420847744e-15,9.614048896934879
160,120.524,0.4857142857142857,-0.00784633235893742,0.0001576345768985814,-0.7053023172922028,-0.7088628241522812,0.012304371151487893,-0.00855315801369956,0.00010973754115010476,0.0,1.1682890328458544e-15,9.539803914559387
161,120.627,0.5428571428571428,-0.008454410873216271,-4.367805780433072e-05,-0.7053015158135599,-0.7088566349468665,0.022610413729501767,-0.018468386951255477,-0.00023848181168932423,0.0,1.1502791104574995e-15,9.39274173793104
162,120.695,0.7142857142857143,-0.00885586076613824,-0.00017658348654023682,-0.7053009866820288,-0.7088525488695052,0.0294144030043072,-0.02501436333721487,-0.0004683741999716708,0.0,1.1383890646088766e-15,9.295652145593877
163,120.823,0.6,-0.009659524176045955,-0.0003457458160425012,-0.707393119043428,-0.706746809447002,0.013077331964522758,-0.010194083164278812,0.00026998359478098413,0.0,-0.004621986680326557,9.073723486065582
164,120.92,0.5277777777777778,-0.01027266171271822,-0.0004669991382625792,-0.7091578725332813,-0.7049713229141016,-0.0017997973262658326,0.0033620606008616626,0.0009298432259591623,0.0,-0.008520531967212166,8.902187493442618
165,121.004,0.6756756756756757,-0.009957501200510305,-0.0005234441077688495,-0.7097349029299926,-0.7043975513095616,-0.008404450165847241,0.009666535057246009,0.001205585800880012,0.0,-0.00778305555555418,8.799055627777772
166,121.104,0.7368421052631579,-0.00896243833655973,-0.0005550669414537461,-0.7097249869269335,-0.7044205434470008,-0.01166739997025296,0.013190274585097691,0.001317233730491904,0.0,-0.0038915277777765616,8.709550488888885
167,121.214,0.6875,-0.007850378029998887,-0.0005821419542291409,-0.7097149911600366,-0.7044447045741046,-0.014999270648220398,0.016576995654981896,0.001449312368521893,0.0,1.0559452093125269e-15,8.62244697857143
168,121.364,0.59375,-0.0060954163908456815,-0.0005139246405866438,-0.7097137947024665,-0.7044622394190752,-0.016033083751645676,0.014521718785470738,0.0017557729947932053,0.0,1.060356929426638e-15,8.658471407142859
169,121.433,0.7428571428571429,-0.005288134036835207,-0.0004825446763110951,-0.7097132443319843,-0.7044703054477617,-0.016508637779221305,0.013576291425495607,0.001896744882878009,0.0,1.0623863206791293e-15,8.675042644285718
170,121.524,0.7435897435897436,-0.004348740437204854,-0.0004114304684653229,-0.7097018785194205,-0.7044875949371748,-0.01657513251831365,0.0136168180466738,0.0013401610959526676,0.0,1.0712357524367063e-15,8.747303738372096
171,121.603,0.5952380952380952,-0.00355642553553994,-0.00034418809704059,-0.7096900409588414,-0.7045038363954418,-0.01652901899791503,0.013890427862142405,0.0007194602864707858,0.0,1.0800614726236437e-15,8.819371212790697
172,121.703,0.5714285714285714,-0.00255349528026773,-0.0002590711711864836,-0.7096750567049439,-0.7045243952033745,-0.016470647453106644,0.014236769400710315,-6.623694072160078e-05,0.0,1.0912332703286294e-15,8.910595863953496
173,121.792,0.5405405405405406,-0.0017476445294827584,-0.00023556100592254454,-0.7096646503621691,-0.7045366492179884,-0.013845933489655217,0.012971473846215012,-0.0006826632266021828,0.0,1.1022258345435739e-15,9.000356962603313
174,121.937,0.7027027027027027,-0.0004413931955622569,-0.00020126340835409528,-0.7096479208206428,-0.704556150288965,-0.009372463257413765,0.010789395771797534,-0.0016806016681900568,0.0,1.1202155449491979e-15,9.147254095867767
175,121.977,0.5897435897435898,-0.00017254195878431283,-0.00019690764292151593,-0.7096451534446869,-0.7045590677581387,-0.008629013541275963,0.009937999479236907,-0.002141094521763022,0.0,1.124362618220516e-15,9.181117518972336
176,122.126,0.7435897435897436,0.0006828653282937099,-0.00018883320752287571,-0.7096377946424021,-0.7045660047055748,-0.006642888826520458,0.006368329207386971,-0.0041520881591726394,0.0,1.1385084102947921e-15,9.296626677075103
177,122.202,0.7209302325581395,0.0011191804545884999,-0.00018471470356115358,-0.7096340411593575,-0.7045695430143342,-0.005629831925034523,0.004547557793557643,-0.0051778298802673825,0.0,1.1457237136346908e-15,9.3555441
178,122.323,0.6410256410256411,0.0014723371692159839,-0.0002054035053703122,-0.7096311133777493,-0.7045717500020494,-0.0031574263364549564,0.002897790348679547,-0.004577399475040207,0.0,1.1542360158148836e-15,9.425052322175729
179,122.389,0.6923076923076923,0.0016649681044673538,-0.00021668830635712688,-0.7096295164059631,-0.7045729538135305,-0.0018088414699569057,0.001997917196927787,-0.004249891981279904,0.0,1.1588790897313528e-15,9.462965897907946
180,122.534,0.5918367346938775,0.0018123634319735002,-0.00022117917473096841,-0.7096258789474125,-0.7045763111649518,3.4120900884928185e-06,0.00039724646591237896,-0.003834001286039967,0.0,1.1671910211621753e-15,9.530837968750003
181,122.579,0.6666666666666666,0.0018102467382955939,-0.00021905005201366064,-0.7096247277030471,-0.7045774767587698,0.00036618571109344627,-3.421148391095398e-05,-0.0037576200821521724,0.0,1.1694428366370858e-15,9.549225437499997
182,122.706,0.74,0.0018020461832753418,-0.00021256362594350347,-0.7096215696960682,-0.704580679516935,0.0013838012467058073,-0.0012585135184443829,-0.003525622419001057,0.0,1.175777573503955e-15,9.600952489506174
183,122.803,0.74,0.0015814863492314825,-0.00016165002715948256,-0.7096279209887703,-0.704574771777953,0.0015631927361274961,-0.0028318316961251705,-0.0017669840692829757,0.0,1.1786539666044173e-15,9.624440021604938
184,122.924,0.673469387755102,0.0013063550098571463,-9.81392492948705e-05,-0.7096358437353367,-0.704567402330357,0.0017869697487050973,-0.004794424474469514,0.0004267812947986423,0.0,1.182242044595716e-15,9.653738901851856
185,123.024,0.6521739130434783,0.0009763877262896606,-7.209212771944308e-05,-0.7096320460584847,-0.7045716574449223,0.002929126439994543,-0.0057400990408496555,0.0006902562272443739,0.0,1.1843798792873288e-15,9.671195646875
186,123.164,0.6590909090909091,0.0004690797137477323,-4.7315917860509145e-05,-0.7096221555545333,-0.7045821884349899,0.004951336486556218,-0.006765046346117801,0.0003740550237125545,0.0,1.1870069973413915e-15,9.69264769375
187,123.258,0.75,2.873008997926783e-05,-1.9841118692955287e-05,-0.7096334160815199,-0.7045709204460623,0.005860839271917931,-0.007432930789203659,0.0015363150005399584,0.0,1.18875023952537e-15,9.706882346428571
188,123.324,0.6382978723404256,-0.0003323198267548848,5.087181608714734e-06,-0.7096506327746133,-0.7045534709710003,0.0062662851996719655,-0.007891315890818205,0.0030672744401178745,0.0,1.1899634625567505e-15,9.716789064285713
189,123.467,0.723404255319149,-0.000986903960186249,3.284473280795307e-05,-0.7096668985469091,-0.7045365245998242,0.007146146933675942,-0.007999614985915416,0.004118153966165953,0.0,1.1918864214619716e-15,9.732491215359476
190,123.503,0.7045454545454546,-0.0011152303574834671,3.233548631858549e-05,-0.709664985974017,-0.7045382155057164,0.0073680491095371985,-0.007774191424615857,0.003735563447668566,0.0,1.1921690022274507e-15,9.7347986624183
191,123.654,0.5909090909090909,-0.0016534883017023205,3.019948021040491e-05,-0.7096569637932749,-0.7045453079165419,0.008298805458288523,-0.0068286648202760996,0.002130808772860184,0.0,1.193354271549321e-15,9.744477120915032
192,123.724,0.6363636363636364,-0.0019035464743560404,2.380139319743303e-05,-0.7096530989499362,-0.704548651677627,0.008488709287918048,-0.006296502341600965,0.0014300622485678013,0.0,1.1939411002004973e-15,9.749268940495869
193,123.812,0.6808510638297872,-0.0022198469325888166,-3.881982916373607e-06,-0.7096477102305804,-0.7045530582358905,0.007850115114345786,-0.005286699076267819,0.000705940680181972,0.0,1.1948145316574324e-15,9.756401049586778
194,123.928,0.627906976744186,-0.002636788445713868,-4.0373705975484806e-05,-0.7096406069187021,-0.7045588668808743,0.0070083318855459304,-0.003955594771964947,-0.0002485832054175939,0.0,1.1959658731233925e-15,9.765802466115703
195,124.008,0.627906976744186,-0.002890042097533415,-6.470109963397822e-05,-0.7096330187456139,-0.7045654784509523,0.006804107157222458,-0.003952695071347998,-7.885891045587948e-05,0.0,1.1964458572070598e-15,9.769721833593751
196,124.11,0.75,-0.003198366310400361,-9.536181899126586e-05,-0.7096222008565695,-0.7045750155862104,0.006703654686134535,-0.004337916841905121,0.0004894466333098874,0.0,1.1969243679954783e-15,9.773629170703126
197,124.21,0.6666666666666666,-0.00349629523518109,-0.00012530279198368584,-0.7096125574101408,-0.7045834023657678,0.006524036366644561,-0.004668700373826586,0.001015396870919789,0.0,1.1973947599934091e-15,9.777470212857143
198,124.316,0.6774193548387096,-0.003739865623617863,-0.0001550714068824804,-0.7096183164030364,-0.7045762942691384,0.004986250666635277,-0.004240729500140435,0.001054575843071302,0.0,1.1979143625846266e-15,9.78171309
199,124.435,0.95,-0.004013307852145915,-0.00018849088964621868,-0.7096247816875135,-0.704568314424809,0.0032598686071910383,-0.0037602716325116827,0.0010985597835055441,0.0,1.198497690021937e-15,9.78647632
200,124.497,0.65,-0.004092529455756706,-0.00019653373426215911,-0.7096260914262623,-0.7045665428944048,0.002274594979184687,-0.003280319410970236,0.0006516867548256564,0.0,1.1987932714098097e-15,9.78888992519685
201,124.622,0.7954545454545454,-0.004215060522596087,-0.00020723982999492992,-0.7096275214185686,-0.704564374339225,0.000237694311718386,-0.0021776429356413288,-0.0005255205626416013,0.0,1.1993842990935134e-15,9.793716032480315
202,124.699,0.8541666666666666,-0.004290539659769142,-0.0002138347849663166,-0.7096284022938293,-0.7045630385092343,-0.0010170364994408262,-0.0014983942268387376,-0.0012506802702014147,0.0,1.1997483721466748e-15,9.796688914566928
203,124.821,0.9375,-0.004237996278010674,-0.00018602867850767523,-0.7096078466701706,-0.7045840641569978,-0.0015201244325323948,-0.0003472661918476174,-0.0002556656339637623,0.0,1.1997672850325534e-15,9.79684335
204,124.917,0.9787234042553191,-0.004192059158636569,-0.00016312803998122692,-0.7095910862226487,-0.7046012262246827,-0.0018763878454673931,0.0005605377846518882,0.0005844850944945977,0.0,1.1997672850325534e-15,9.79684335
205,125.004,0.9148936170212766,-0.004136274572313841,-0.0001548358810656524,-0.7095904432242787,-0.7046022026751114,-0.0019249330621723935,0.0007363580037182128,0.0011708260897328306,0.0,1.2000263174009092e-15,9.79895850980392
206,125.098,0.9215686274509803,-0.004067103880666314,-0.00015371025201894842,-0.709598892657774,-0.7045940943397085,-0.0018049390639598417,0.0005196775672683303,0.0016943048302303539,0.0,1.2004690272668263e-15,9.802573510196078
207,125.234,0.8695652173913043,-0.003945251323899454,-0.00015712899339571232,-0.7096050431639728,-0.7045885883999429,-0.0017388243114157612,0.0003877399496411054,0.001583881258052209,0.0,1.2008211959487021e-15,9.805449185714284
208,125.298,0.9090909090909091,-0.003851701320575827,-0.00016713020459268162,-0.7095978376634268,-0.7045963484048162,-0.001886445918709663,0.0006275354720633342,8.899190139998467e-05,0.0,1.2005074736294764e-15,9.802887448571427
209,125.42,0.7906976744186046,-0.003673371626740185,-0.0001861950134369022,-0.7095841021780109,-0.704611140914106,-0.0021678496076136316,0.0010846456866806565,-0.0027606409347179957,0.0,1.1999094404584525e-15,9.798004137142856
210,125.484,0.8604651162790697,-0.003573658628116142,-0.0001884504557793143,-0.7095860293951519,-0.704609706752306,-0.0022653237415047756,0.0012297862267587288,-0.0026611260165318035,0.0,1.1999289538358803e-15,9.798163475961537
211,125.599,0.8604651162790697,-0.0033853111241925675,-0.00018097099876961128,-0.7096030895123295,-0.7045934411062792,-0.002365811047359157,0.0013496595784090488,-0.00010849842622583528,0.0,1.200460151332526e-15,9.802501032692307
212,125.697,0.7209302325581395,-0.003224806294762057,-0.00017459720062221277,-0.7096176276991418,-0.7045795799470563,-0.0024514437080002745,0.0014518125215545296,0.002066784215947752,0.0,1.2009128239818414e-15,9.806197385384614
213,125.821,0.6976744186046512,-0.003031152846472092,-0.00013140832849488246,-0.7096292720342955,-0.7045687008747539,-0.001990794677597793,0.0010833094206949172,0.0010958999511786118,0.0,1.2009682532858392e-15,9.80665
214,125.904,0.8372093023255814,-0.0029022065692966346,-9.998066970033938e-05,-0.7096365820732965,-0.7045618965143747,-0.0016416502403444723,0.0008009525918169038,0.0001790127316781149,0.0,1.2009682532858392e-15,9.80665
215,126.01,0.782608695652174,-0.002739289455770988,-7.253308797468417e-05,-0.7096477110210726,-0.7045513388720566,-0.0010217257453511608,0.000507795966376404,0.00039492686251735727,0.0,1.2009682532858392e-15,9.80665
216,126.122,0.7450980392156863,-0.0025685234572780137,-5.342241853025026e-05,-0.7096608676677173,-0.7045387277982507,-0.00023106207920454047,0.00025061532791118474,0.0017040813848486413,0.0,1.2009682532858392e-15,9.80665
217,126.207,0.7021276595744681,-0.0024390731849482893,-3.935463384659574e-05,-0.7096702457960623,-0.704529765172314,0.0003619848760034968,5.8384030601200036e-05,0.0026266736669789004,0.0,1.2009682532858392e-15,9.80665
218,126.304,0.8372093023255814,-0.0022959928082308765,-3.6895859911476056e-05,-0.7096620196619191,-0.7045385107463485,0.0008200899975811808,-6.895530161125568e-05,0.0014660411742420032,0.0,1.2009682532858392e-15,9.80665
219,126.441,0.717948717948718,-0.002093910214310424,-3.342315858043103e-05,-0.7096504013075107,-0.7045508627426654,0.0014671044476444537,-0.0002488056986535751,-0.0001732026557058489,0.0,1.2009682532858392e-15,9.80665
220,126.514,0.8157894736842105,-0.00201700813686697,-3.80948930957302e-05,-0.7096495023692446,-0.7045519861780649,0.0011554886878002626,-0.00020315068832133272,0.00024125484924295,0.0,1.2009682532858392e-15,9.80665
221,126.662,0.7894736842105263,-0.0018687767240604637,-4.9193800160095315e-05,-0.7096490003208827,-0.7045529018448276,0.0003599371711830758,-7.528501065769957e-05,0.0014028949463794026,0.0,1.2009682532858392e-15,9.80665
222,126.764,0.9148936170212766,-0.0017766895483005362,-5.485513193123302e-05,-0.7096489874560008,-0.704553154914497,0.00010125383906669346,0.00019369044155652295,0.001404229164388296,0.0,1.2009682532858392e-15,9.80665
223,126.848,0.775,-0.00170794137246669,-5.8118423268908775e-05,-0.7096492113074407,-0.7045530973112722,9.202609984474726e-05,0.0005424728895309389,0.0008428571612914496,0.0,1.2009682532858392e-15,9.80665
224,126.999,0.95,-0.0016294168349651813,-5.123443673671655e-05,-0.7096501033777081,-0.7045523916252289,0.0005455230379019986,0.0003208985274970027,9.936664922975364e-05,0.0,1.2009682532858392e-15,9.80665
225,127.085,0.7906976744186046,-0.00163811405058802,-3.2197626648606924e-05,-0.7096511919809101,-0.704551275837938,0.0013611225541753124,-0.0008113106136510479,-9.141671462232684e-06,0.0,1.2009682532858392e-15,9.80665
226,127.156,0.9318181818181818,-0.001645294309997574,-1.648119041307159e-05,-0.7096520907114605,-0.7045503546647095,0.0020344663408661985,-0.0017460414162269403,-9.872412226609873e-05,0.0,1.2009682532858392e-15,9.80665
227,127.233,0.9111111111111111,-0.001648005501090915,-1.4014322591403004e-05,-0.7096546253783342,-0.7045477952667125,0.0024737731649084275,-0.0022186659535618366,0.0002595417990124848,0.0,1.2009682532858392e-15,9.80665
228,127.302,0.8809523809523809,-0.0016415129725449078,-3.742762359598366e-05,-0.7096596387587282,-0.7045427590358373,0.0023560414994797754,-0.0016910765246023571,0.0013810940160881627,0.0,1.2009682532858392e-15,9.80665
229,127.439,0.8571428571428571,-0.001628622010069504,-8.391490240217363e-05,-0.7096695928618291,-0.7045327595629401,0.002122284424643208,-0.0006435438902916513,0.0036079440702815923,0.0,1.2009682532858392e-15,9.80665
230,127.53,0.7906976744186046,-0.0016043047325625661,-9.771866303957992e-05,-0.7096644981831548,-0.7045379443782426,0.0006646220165060241,-0.0007666293301481513,0.0026629012075390745,0.0,1.200584674071862e-15,9.803517838022813
231,127.602,0.8372093023255814,-0.0015840259195419868,-0.00010751451865385146,-0.7096596953695985,-0.7045428264387643,-0.0005745653686301819,-0.0009180084773881184,0.0017553381882997108,0.0,1.200255891888453e-15,9.800833127756654
232,127.719,0.8571428571428571,-0.0015567515826134409,-0.00012170592335426467,-0.709652858030229,-0.7045497729792259,-0.0023508304275990247,-0.0011195233072390167,0.0004163835697886505,0.0,1.1998171177401586e-15,9.797250264937759
233,127.84,0.8571428571428571,-0.0015913845949133848,-0.00011727338878763793,-0.7096564901504058,-0.7045460371777361,-0.0015606389253465932,-0.0008357613327182602,0.000534780477598712,0.0,1.2004200935021818e-15,9.802173935684646
234,127.94,0.9302325581395349,-0.0016200069191282108,-0.00011361013707968244,-0.7096594919026179,-0.7045429497384883,-0.0009075880970388862,-0.000601247304188741,0.0006326291617392455,0.0,1.200918420578234e-15,9.80624308506224
235,128.065,0.9302325581395349,-0.0016713666124765943,-9.792880682681546e-05,-0.7096593510899336,-0.704542971833517,-0.000983504577112249,-0.0013753902638178783,6.640620542340634e-06,0.0,1.2009682532858392e-15,9.80665
236,128.13,0.9302325581395349,-0.001698778220826581,-8.927249960651424e-05,-0.7096591018359,-0.7045431588294472,-0.0010633254604928677,-0.0018262044686990714,-0.00035270956749864225,0.0,1.2009682532858392e-15,9.80665
237,128.235,0.9024390243902439,-0.0017479128459152516,-7.803887750854995e-05,-0.7096566411980326,-0.7045455188375658,-0.0009985087720352972,-0.002371839091782119,-0.0007303095771930802,0.0,1.2009682532858392e-15,9.80665
238,128.331,0.9512195121951219,-0.0018050411160416796,-7.468152645425114e-05,-0.7096492170801888,-0.7045528508028094,-0.0004520845380112235,-0.002411587138791093,-0.0005654235719703381,0.0,1.2009682532858392e-15,9.80665
239,128.431,0.9772727272727273,-0.0018645497307567377,-7.118428577268818e-05,-0.7096414836241015,-0.7045604882666048,0.00011710737243079603,-0.002452991354425461,-0.00039366731652989826,0.0,1.2009682532858392e-15,9.80665
240,128.524,0.8409090909090909,-0.0019089486972292994,-8.12912166099873e-05,-0.7096458128681858,-0.7045560065291512,0.00020848415330804727,-0.0016741874435236878,4.514637000209285e-05,0.0,1.2009682532858392e-15,9.80665
241,128.601,0.8636363636363636,-0.001943534444141793,-9.231395568090186e-05,-0.7096516867014641,-0.7045499938753894,0.00019711098329235844,-0.0008669639292818673,0.0004639211988362701,0.0,1.2009682532858392e-15,9.80665
242,128.724,0.8863636363636364,-0.0019985869888007393,-0.0001075768127479287,-0.7096598415354521,-0.7045416259834794,0.00027761913167451396,0.00017530391962734972,0.0010372827928977137,0.0,1.2009682532858392e-15,9.80665
243,128.812,1.0,-0.0020369706285866354,-0.00010641751175762043,-0.7096593499714929,-0.7045420099018943,0.0008435185440272059,-0.00035235437920086356,0.0009550855531747396,0.0,1.2009682532858392e-15,9.80665
244,128.924,0.8863636363636364,-0.0020858225337686705,-0.0001049420377699558,-0.7096587243446357,-0.7045424985253314,0.0015637541597485977,-0.0010239194868002064,0.0008504708844364403,0.0,1.2009682532858392e-15,9.80665
245,128.989,0.975,-0.0021047337750425324,-0.00010253970796540657,-0.7096575012299257,-0.70454367513835,0.0016928198096510924,-0.001224467797593529,0.0008973659994264228,0.0,1.2009682532858392e-15,9.80665
246,129.124,0.9,-0.002130939768831888,-9.540959968974951e-05,-0.7096537701071814,-0.7045473553857348,0.001560824758219209,-0.0013790229559091291,0.0011437606024299082,0.0,1.2009682532858392e-15,9.80665
247,129.243,0.9761904761904762,-0.0021555880318375395,-9.503189801228895e-05,-0.7096518609618625,-0.7045492034780463,0.001513440127870651,-0.001454919481525065,0.0013513414873514264,0.0,1.2009682532858392e-15,9.80665
248,129.303,0.9772727272727273,-0.002169616932152235,-0.00010095120212164172,-0.709652325408603,-0.7045486914856961,0.0015608780653920094,-0.0014307783794498489,0.0014460634386235034,0.0,1.2009682532858392e-15,9.80665
249,129.432,0.9361702127659575,-0.0021997790678288257,-0.00011367770595674876,-0.709653323969095,-0.7045475907021433,0.001662869631062919,-0.00137887500998814,0.0016497156338584466,0.0,1.2009682532858392e-15,9.80665
250,129.514,0.926829268292683,-0.002215790513112577,-0.000115401710982473,-0.7096564981481217,-0.7045443429030669,0.0013340066652743866,-0.000750057748518677,0.0011744530638678186,0.0,1.2009682532858392e-15,9.80665
251,129.659,0.9512195121951219,-0.00224253117565092,-0.0001152843828570538,-0.7096633739688354,-0.7045373326030847,0.0005566835352510517,0.0006581979541806797,3.330497747808638e-05,0.0,1.2009682532858392e-15,9.80665
252,129.702,0.85,-0.002250461165231258,-0.00011524958899917087,-0.7096654130053228,-0.7045352536865382,0.0003261670208302757,0.0010758186108433619,-0.00030510445503758167,0.0,1.2009682532858392e-15,9.80665
253,129.843,0.9743589743589743,-0.0022659465795461394,-0.00011023365155548723,-0.709663485517712,-0.7045371462606493,-0.00042604009447176866,0.0005900688284767585,-0.0014433739420606757,0.0,1.2009682532858392e-15,9.80665
254,129.967,0.8378378378378378,-0.002279195645173586,-0.0001042712096318785,-0.7096616496600243,-0.704538953710461,-0.0009327045058387042,2.204439502855263e-05,-0.002115349769298694,0.0,1.2009682532858392e-15,9.80665
255,130.069,0.9459459459459459,-0.0022895801875828996,-9.198673266897456e-05,-0.709660555829242,-0.7045400233187514,-0.0005482361758747814,-0.0009277660423049245,-0.0009606435315640523,0.0,1.2009682532858392e-15,9.80665
256,130.124,0.918918918918919,-0.0022951796957447865,-8.53627499928965e-05,-0.7096599660185261,-0.7045406000683198,-0.0003409248214823944,-0.0014399187291025744,-0.0003380078151382828,0.0,1.2009682532858392e-15,9.80665
257,130.223,1.0,-0.0023044837622385713,-7.621704224573498e-05,-0.7096592046940821,-0.704541337835733,1.5853628292851372e-05,-0.0021278548808730323,0.0008297897922633251,0.0,1.2009682532858392e-15,9.80665
258,130.325,0.9487179487179487,-0.0023107075195870196,-7.884314576269306e-05,-0.709659723187203,-0.7045407948679921,0.00031237654829001246,-0.00182178395949837,0.002237098052060265,0.0,1.2009682532858392e-15,9.80665
259,130.409,0.9473684210526315,-0.0023158329668151556,-8.100581924724738e-05,-0.709660150181538,-0.7045403477180879,0.0005565718941700956,-0.0015697255536603427,0.003396057795422773,0.0,1.2009682532858392e-15,9.80665
260,130.501,0.9210526315789473,-0.0023131625611110475,-7.775258851752773e-05,-0.7096610925618317,-0.7045394075217029,0.0006392475499978785,-0.0016785857492323704,0.0033482824289874655,0.0,1.2009682532858392e-15,9.80665
261,130.584,0.9473684210526315,-0.002304745202220671,-7.074019297235198e-05,-0.7096622870561561,-0.704538232592181,0.0005798212919216791,-0.0020559732465699854,0.0023499094454562594,0.0,1.2009682532858392e-15,9.80665
262,130.732,0.8846153846153846,-0.0022974652662571607,-6.916337907762725e-05,-0.7096643451717295,-0.7045361830308188,0.0005089999319111269,-0.0021037920463676234,0.0009296600514433854,0.0,1.2009682532858392e-15,9.80665
263,130.823,0.7692307692307693,-0.00231528925238716,-9.972034849174081e-05,-0.7096654034066403,-0.7045350540829891,0.0005668482104107386,-0.0003296583111641795,0.0010949951720101185,0.0,1.2009682532858392e-15,9.80665
264,130.95,0.9069767441860465,-0.0023401644857773737,-0.00014236578932241657,-0.7096668802839334,-0.7045334785184357,0.0006475815221629246,0.002146330528075201,0.0013257375930207788,0.0,1.2009682532858392e-15,9.80665
265,130.998,0.9285714285714286,-0.0023481319648849365,-0.00014181778584444364,-0.7096642719301257,-0.7045360792618883,0.0008247557819522559,0.0013272236984798384,0.0013592751786893143,0.0,1.2009682532858392e-15,9.80665
266,131.124,0.8809523809523809,-0.0023689664968454074,-0.00013944846481927763,-0.709657248146549,-0.7045430847264323,0.001298029380187863,-0.0009209455226513461,0.0014443136944910348,0.0,1.2009682532858392e-15,9.80665
267,131.22,0.95,-0.0023838469403307952,-0.00013682900400353065,-0.7096534533472065,-0.7045468576567191,0.0016494880447436517,-0.002354058652843641,0.0015981288729007904,0.0,1.2009682532858392e-15,9.80665
268,131.321,0.85,-0.0023942762585621603,-0.0001297897458399097,-0.7096576495549786,-0.7045425968220537,0.0019712203321410548,-0.0023900657897905964,0.002228258214550225,0.0,1.2009682532858392e-15,9.80665
269,131.405,0.8947368421052632,-0.0024029501469922067,-0.00012393531330778899,-0.7096611394703534,-0.7045390531575795,0.002238799660273561,-0.0024200123195286596,0.002752326181862651,0.0,1.2009682532858392e-15,9.80665
270,131.535,0.9210526315789473,-0.0024219283701152846,-9.247724782836188e-05,-0.7096668194593008,-0.7045332703252594,0.00197334874731799,-0.0020820101490244265,0.00273493048734963,0.0,1.2009682532858392e-15,9.80665
271,131.648,0.7894736842105263,-0.002440980831070112,-5.482596378006051e-05,-0.7096718850384897,-0.7045281063041767,0.0014298892306054871,-0.0016113386215532983,0.002338571167167534,0.0,1.2009682532858392e-15,9.80665
272,131.744,0.925,-0.002455762832024827,-2.1929019903985178e-05,-0.7096762381642198,-0.7045236720863609,0.0012637082793999466,-0.001386026714122056,0.0013790949526040364,0.0,1.2009682532858392e-15,9.80665
273,131.883,0.775,-0.002474194472789654,2.7628768602214826e-05,-0.7096826461428739,-0.704517152068164,0.001648465608723674,-0.0014291754280164025,-0.0013279933179541556,0.0,1.2009682532858392e-15,9.80665
274,131.945,0.825,-0.002482415780181157,4.973368146108789e-05,-0.709685504377957,-0.7045142438586085,0.0018200839858320407,-0.0014484216169476872,-0.002535471539353802,0.0,1.2009682532858392e-15,9.80665
275,132.064,0.925,-0.002513296154049488,4.327998070138619e-05,-0.7096894090458501,-0.7045102007144846,0.0021679257962985035,-0.0014798582049285456,-0.0032092015288416476,0.0,1.2009682532858392e-15,9.80665
276,132.124,0.7837837837837838,-0.0025292703647444995,3.8717386431433526e-05,-0.7096913354517782,-0.7045082033492689,0.0023438020336916327,-0.0014955612422213706,-0.0035048885686918994,0.0,1.2009682532858392e-15,9.80665
277,132.228,0.8648648648648649,-0.002545477535827944,2.606643001952742e-05,-0.7096981091526738,-0.704501322041681,0.0022936492068655065,-0.0014197859924422254,-0.0034746779543667746,0.0,1.2009682532858392e-15,9.80665
278,132.317,0.9487179487179487,-0.0025265955312703727,1.7119605490344478e-06,-0.7097137032864063,-0.7044856797207198,0.0012380555224969923,-0.0010611433123411586,-0.001900638784762545,0.0,1.2009682532858392e-15,9.80665
279,132.424,0.7209302325581395,-0.0025038946943303714,-2.75681319604349e-05,-0.7097324512898823,-0.7044668737842834,-3.102901938426602e-05,-0.0006299661576129059,-8.254614564184772e-06,0.0,1.2009682532858392e-15,9.80665
280,132.516,0.8372093023255814,-0.0024712863841072994,-4.171023833388622e-05,-0.7097392767123285,-0.7044601108238888,-0.000652958255950777,-0.00023620255657593608,0.0007866539306785682,0.0,1.2009682532858392e-15,9.80665
281,132.644,0.8571428571428571,-0.0024183533396284155,-5.50097766772544e-05,-0.7097434014982107,-0.7044561378275928,-0.0012470612965368335,0.000324953163490604,0.0014116701410945283,0.0,1.2009682532858392e-15,9.80665
282,132.737,0.8857142857142857,-0.002383068272941497,-6.875509330534736e-05,-0.7097417752894767,-0.704457896263179,-0.0015726725985648253,0.0005633193435061292,0.0013789830840889123,0.0,1.2009682532858392e-15,9.80665
283,132.811,1.0,-0.00236225316013245,-8.903119887829191e-05,-0.7097299053005958,-0.704469921660627,-0.0015891765463439888,0.00036557954873009575,0.0002393526887957357,0.0,1.2009682532858392e-15,9.80665
284,132.944,0.8947368421052632,-0.002324842214137823,-0.00012547338862424866,-0.7097085714016611,-0.7044915348749592,-0.0016188390470822057,1.0182350011117385e-05,-0.0018089019405819143,0.0,1.2009682532858392e-15,9.80665
285,133.028,0.9736842105263158,-0.0023222483157950315,-0.0001238612823640204,-0.7097035009136166,-0.7044966518805499,-0.0012059474019738975,-0.0005283652825037654,-0.0010945362433710836,0.0,1.2009682532858392e-15,9.80665
286,133.124,0.8974358974358975,-0.0023214692182135107,-0.00011946009847183202,-0.709698579166593,-0.704501613295192,-0.0006892269913460974,-0.0011764806281156271,-6.949490630131614e-05,0.0,1.2009682532858392e-15,9.80665
287,133.22,0.9142857142857143,-0.0023221731007698316,-0.00011506568339391674,-0.709696180468394,-0.7045040280803362,-0.0002072810743665287,-0.0016924587393840598,0.0010367179582374856,0.0,1.2009682532858392e-15,9.80665
288,133.324,0.9142857142857143,-0.0023309684492858283,-0.00011034173147015403,-0.709707248393146,-0.7044928498544614,0.00012646516176664595,-0.001535691673897433,0.002674794335278917,0.0,1.2009682532858392e-15,9.80665
289,133.399,0.8717948717948718,-0.002337311248696401,-0.00010693503537128765,-0.7097152300696499,-0.7044847886338785,0.00036714754359338706,-0.001422638501671532,0.0038560994148757717,0.0,1.2009682532858392e-15,9.80665
290,133.52,0.875,-0.0023572387527315292,-0.00010218316749199978,-0.70972089813143,-0.7044790125058639,0.00040757989149415403,-0.0011780200560544333,0.004503964366760902,0.0,1.2009682532858392e-15,9.80665
291,133.61,0.9512195121951219,-0.0023776810074469536,-9.908019341482397e-05,-0.7097209347628207,-0.7044789072427426,0.0002359844771836891,-0.0009599983155843042,0.004256564993338792,0.0,1.2009682532858392e-15,9.80665
292,133.743,0.85,-0.0023921422717086533,-9.229729509806995e-05,-0.7097194412030494,-0.7044803641138662,-8.201631015040901e-05,-0.0006893155653768638,0.003285752207210258,0.0,1.2009682532858392e-15,9.80665
293,133.791,0.925,-0.0023808125551082774,-8.754017486485292e-05,-0.7097172757616833,-0.7044825843405346,-0.00026448101357532625,-0.0006457501502846168,0.0022993896537545676,0.0,1.2009682532858392e-15,9.80665
294,133.924,0.7446808510638298,-0.002349419798694734,-7.435898755198028e-05,-0.7097112756845646,-0.7044887362185952,-0.0007700602959818858,-0.0005250376459665117,-0.0004336565881123376,0.0,1.2009682532858392e-15,9.80665
295,134.004,0.868421052631579,-0.002108485818403222,0.00014858138289212204,-0.709705490149323,-0.7044950380156423,-0.00940448226657394,-0.0002339080396189603,-0.0006616096989631181,0.0,1.2007166670509612e-15,9.804595642490119
296,134.115,0.8918918918918919,-0.0016172353913819406,0.0006098900324155058,-0.7096959243065585,-0.7045056205452578,-0.02727293884800482,0.0003244932943388493,2.2979293997795955e-05,0.0,1.2001897600307448e-15,9.800293120158102
297,134.24,0.7714285714285715,7.113133466813445e-05,0.002180988507137511,-0.7096748614918278,-0.7045129875350031,-0.054619081469201164,0.0014055043674331118,0.0005392417545441641,0.0,1.2001173648472765e-15,9.79970196862348
298,134.302,0.6666666666666666,0.0023005157071333384,0.0042497569192908495,-0.7096517959336188,-0.7045110619156361,-0.07704100591933333,0.0024961599340634286,0.0004830245849552086,0.0,1.2007202800837436e-15,9.8046251451417
299,134.399,0.7272727272727273,0.005788423515668845,0.00748637846733835,-0.7096157094957759,-0.7045080492530779,-0.1121204683655203,0.004202508159275981,0.0003950719164047148,0.0,1.2016635506956363e-15,9.812327534210526
300,134.513,0.6285714285714286,0.01089529056000067,0.012172325998031234,-0.709522256419628,-0.7044505765153333,-0.13068328301111853,0.005460603595819636,0.0006044541121020489,0.0,1.2024578263131704e-15,9.818813286821705
301,134.582,0.6571428571428571,0.014497825962508586,0.015456338087909622,-0.7094397816441578,-0.7043884122984285,-0.1304132143656413,0.0058427212088433544,0.0008899494913106855,0.0,1.2027790154971886e-15,9.821435995542636
302,134.723,0.7368421052631579,0.021615742425696093,0.021945604275291748,-0.7092713045143626,-0.7042572254867372,-0.1260745356725539,0.0062813639521995465,0.0013608905075236347,0.0,1.203508572965629e-15,9.827393284362142
303,134.804,0.6052631578947368,0.02443432775400324,0.02451897524080869,-0.709174823496595,-0.7041602070693008,-0.10384815983443571,0.0047500289702565555,0.001045360873666983,0.0,1.2043092184678195e-15,9.833931051028808
304,134.922,0.575,0.0285404150224017,0.028267836647364597,-0.70903427090281,-0.7040188715969862,-0.07146899503322343,0.0025191952928579116,0.0005857004194066316,0.0,1.2054755909278008e-15,9.843455204938271
305,135.021,0.5833333333333334,0.030802510641805596,0.030336290304679176,-0.7089430605566871,-0.703934203322115,-0.05650852620601805,0.001779951970092991,0.0009627821220253244,0.0,1.2060996630953333e-15,9.848551140909091
306,135.098,0.6388888888888888,0.032161923465179244,0.03158095992900006,-0.7088811518471281,-0.7038798172984804,-0.04899993506462612,0.0015879181902045622,0.001513995583010002,0.0,1.2064651751724203e-15,9.851535773517787
307,135.229,0.5483870967741935,0.034361813618149196,0.033582193396652464,-0.7087771904641611,-0.703793183039096,-0.03723525533006201,0.0012934071594879997,0.0019029378698568896,0.0,1.2070921988418505e-15,9.85665581033058
308,135.299,0.6451612903225806,0.03526841853018534,0.03437444063933975,-0.7087248876397046,-0.7037609279844109,-0.03335415353336622,0.0012127353823243488,0.0008032680123521362,0.0,1.2074395863531314e-15,9.8594924446281
309,135.421,0.5333333333333333,0.03684850137687687,0.03575521440516613,-0.7086337312885091,-0.7037047120319597,-0.02658994754483941,0.001072135999267703,-0.0011132994535846814,0.0,1.2080450331585069e-15,9.864436292975206
310,135.491,0.5185185185185185,0.03716857277082732,0.03597654250778969,-0.7086191640387739,-0.7036924321865455,-0.017455311096087802,0.0011704026631585978,-0.00152161798263922,0.0,1.2083821045502179e-15,9.86718868976378
311,135.627,0.7407407407407407,0.03711705481675166,0.03575110656195621,-0.7086341843536433,-0.7036915067790857,0.00632331326721456,0.0015667513788377478,-0.0015212153139575497,0.0,1.2090251426700876e-15,9.872439494488189
312,135.701,0.6,0.03708902298879874,0.035628442885546834,-0.7086423571720282,-0.703691003248556,0.019261682406067848,0.0017824117094278333,-0.001520996214821935,0.0,1.2093750310588401e-15,9.87529655
313,135.809,0.6451612903225806,0.03639447939634136,0.03477235599141123,-0.7086965931836496,-0.7037143242881573,0.015308608965154114,0.0013528577222737337,-0.001599886119773843,0.0,1.2098917823391383e-15,9.879516144422311
314,135.922,0.6333333333333333,0.035667781007936925,0.03387663544476938,-0.7087533401217351,-0.7037387250055178,0.011172522864938991,0.0009034169764551113,-0.0016824283351401879,0.0,1.2104324572898208e-15,9.883931090438246
315,136.02,0.6,0.03517212714232177,0.03378256111111747,-0.7137589327920036,-0.6985916439929674,0.007828007169466685,-0.012910582128884535,0.15833771570277458,0.0,1.2105759993121259e-15,9.8851032
316,136.137,0.6296296296296297,0.0346512619140556,0.034029857096737025,-0.7223455750279386,-0.689724490871566,0.003962809382106467,-0.03647348493391119,0.4337041976783934,0.0,1.2105759993121259e-15,9.8851032
317,136.225,0.4444444444444444,0.034416245291433334,0.03409801299973246,-0.7331451658558439,-0.6776849788259687,0.0011568132510811878,-0.0460154885644877,0.6209830537981178,-0.000833763765181702,-0.0008337637651804913,9.88593696376518
318,136.298,0.5172413793103449,0.034636137378382434,0.03384265886941829,-0.7535936958050543,-0.6534846424544961,-0.0009031503537654567,-0.03228007765253063,0.7238447740975655,-0.0037320854251011964,-0.0037320854250999856,9.8888352854251
319,136.433,0.3793103448275862,0.035042787128219746,0.03337042862842641,-0.7914094703686562,-0.6087305957401368,-0.004712672088755179,-0.006878975281107487,0.9140685034184296,-0.009091995344129487,-0.009091995344128275,9.894195195344128
320,136.565,0.5652173913043478,0.03794413438502415,0.03077561696204113,-0.8267560528122012,-0.55704132870478,-0.004565989074989387,0.012025079461619487,0.9762571182696279,-0.00980665,-0.00545661848248898,9.899259881517509
321,136.63,0.5625,0.03956749643643072,0.029332019626721526,-0.8440349225134792,-0.5309717326307435,-0.004192741259802069,0.020872629207743666,0.9972540859118505,-0.00980665,-0.0029763373540844457,9.901740162645913
322,136.797,0.3888888888888889,0.04391996283720171,0.02482923949840264,-0.8857350575581042,-0.4571519672788987,-0.000918457246400823,0.028857588340513204,1.0344226716971787,-0.013383665778688473,1.2129779358186976e-15,9.9047165
323,136.821,0.28440366972477066,0.04456834897807805,0.02408214826444254,-0.8913886732173647,-0.44568151782370735,-0.0001562855694992732,0.028147808413525235,1.037651136761806,-0.014348254303278674,1.2129779358186976e-15,9.9047165
324,136.879,0.45774647887323944,0.04613528215186227,0.022276677782372585,-0.905051577727242,-0.4179612649736662,0.0016856293163458377,0.02643250692330458,1.0454532606679874,-0.016679343237704612,1.2129779358186976e-15,9.9047165
325,136.979,0.39634146341463417,0.048538425484807024,0.01913177455123613,-0.9267963401162059,-0.36965753236666904,0.004798302709657585,0.02284429618157384,1.0565835365227298,-0.0196133,1.2129779358186976e-15,9.9047165
326,137.124,0.4,0.050852887672261024,0.0144461224943155,-0.9512226539438408,-0.2976169737414991,0.009064531426817374,0.015168443011741474,1.063620661932324,-0.0196133,1.2129779358186976e-15,9.9047165
327,137.218,0.41081081081081083,0.05214853807126843,0.011354731335779881,-0.9661568612374443,-0.2504783169412339,0.012547932384954824,0.009071278047840546,1.06514894577765,-0.02016690120967671,1.2131135290085845e-15,9.905823702419353
328,137.291,0.5172413793103449,0.05224607516425291,0.008715240005394191,-0.9737573102272907,-0.2119335780940383,0.018438091711891626,-0.0006388247260932685,1.0528731192311946,-0.02305353608870938,1.2138205506415673e-15,9.911596972177419
329,137.376,0.526595744680851,0.05235964575197457,0.005641859689191705,-0.9826071480921803,-0.16705271779250958,0.025296496407639892,-0.01194510877793391,1.038579348594911,-0.026414686290322727,1.2146437950087393e-15,9.918319272580646
330,137.505,0.48936170212765956,0.05136134621014787,0.000902671679111225,-0.9919936578100529,-0.11084277955786723,0.033331413198885614,-0.027453366014743564,0.8913495822407488,-0.02941995,0.002022383073931032,9.92028503385214
331,137.569,0.48205128205128206,0.05003323148290814,-0.001501825749708082,-0.9937732363872805,-0.09142400941583545,0.03562900851614701,-0.033973044980359524,0.728995524839699,-0.02941995,0.004464506031129158,9.915400787937743
332,137.681,0.5987654320987654,0.047709030710237896,-0.005709696250143205,-0.9968874988974301,-0.05744116166726909,0.039649800321355726,-0.045382483170191064,0.4448759243877718,-0.02941995,0.008738221206227236,9.906853357587547
333,137.775,0.6423841059602649,0.045240713863292877,-0.007541368423291979,-0.9980134939882733,-0.0410921790075249,0.027922910465685666,-0.04986234680737984,0.3116702507307464,-0.02941995,0.012470184567902602,9.902052965432098
334,137.885,0.6733333333333333,0.0420952694403305,-0.008840876003359303,-0.9985925430937836,-0.028003394469848952,0.006702764120736442,-0.05257485362359992,0.20804396149063142,-0.02941995,0.01690940884773749,9.897613741152263
335,138.004,0.7551020408163265,0.038814193325114474,-0.009317544573793038,-0.9990325523276666,-0.01763180682233375,-0.008325706576070705,-0.05398597609665661,0.12672158709121462,-0.02941995,0.021636894444445286,9.890862661111111
336,138.122,0.6326530612244898,0.035716206547568415,-0.008603077985718516,-0.9992306917730578,-0.012187177956972411,-0.013098971023860342,-0.053438998965753395,0.08541127643178048,-0.02941995,0.026228897222223803,9.881678655555554
337,138.174,0.6666666666666666,0.03435099203542994,-0.008288228302838327,-0.9993180074608572,-0.009787849982407221,-0.015202443492377088,-0.053197958196202905,0.06720673275135813,-0.02941995,0.028252491666667878,9.877631466666667
338,138.359,0.6226415094339622,0.029865164742483827,-0.006698407495119898,-0.999509359064801,-0.005414522523682599,-0.01786300213072438,-0.04852741307403177,0.03627970520721089,-0.02941995,0.023315408835342413,9.863087467670683
339,138.416,0.7169811320754716,0.028505180216363148,-0.006180561847929911,-0.9995612022816686,-0.004315305184830165,-0.01839513090031447,-0.0468609966936123,0.028768794543772767,-0.02941995,0.02107051305221031,9.858597676104418
340,138.493,0.7160493827160493,0.026831337777365454,-0.0054977192873219664,-0.9996171383668591,-0.0032928328087437437,-0.018669572954838606,-0.04489228579887145,0.022075606481165362,-0.02941995,0.019613300000001208,9.85568325
341,138.604,0.6790123456790124,0.024636186609488048,-0.004535634722428458,-0.9996789749981423,-0.0024355095136424938,-0.018472617701446818,-0.042430855203852993,0.017031531578810433,-0.02941995,0.019613300000001208,9.85568325
342,138.726,0.6451612903225806,0.0222493330428463,-0.0034985433574698517,-0.999744444163107,-0.001559748813716649,-0.01792732326955124,-0.03977274940517131,0.011755747518304077,-0.02941995,0.020216167827869513,9.853874646516395
343,138.809,0.6514285714285715,0.02075086794521464,-0.0028916666460303466,-0.9997768743699507,-0.0012867787568852282,-0.01596057372259348,-0.038193672162587816,0.009467838003804383,-0.02941995,0.02355203647541043,9.843867040573773
344,138.933,0.6914285714285714,0.018512197196945693,-0.001985007462674959,-0.9998253243175242,-0.0008789680695708239,-0.013022297290993988,-0.035834568812222155,0.006049756319491651,-0.02941995,0.02853574385245942,9.828915918442625
345,139.044,0.6338797814207651,0.016783744579881462,-0.0013774039312764905,-0.9998561742166766,-0.0006827757673677757,-0.01066119162118937,-0.032799466284941944,0.004323255865419485,-0.02941995,0.03292513815261166,9.8262633
346,139.132,0.536036036036036,0.015467433562415773,-0.0009356788899895979,-0.9998781781131107,-0.0005603284213186489,-0.00884206495416101,-0.030212313812001762,0.0032157742766192716,-0.02941995,0.036390942168675736,9.8262633
347,139.241,0.5920398009950248,0.013984229329961047,-0.000439122397539107,-0.9999014941901873,-0.00045246429895091076,-0.007197062099998364,-0.027120825023420198,0.001924272190785005,-0.02941995,0.03776351108871058,9.823337122177419
348,139.284,0.5808080808080808,0.013512132921627689,-0.00028206188168900176,-0.9999076686288535,-0.0004435389747275188,-0.0070150367194606955,-0.025988033401870295,0.0014763972233802006,-0.02941995,0.03606316451613074,9.819936429032259
349,139.426,0.6708860759493671,0.011953116875502818,0.0002366030776302017,-0.9999280586356116,-0.0004140646482223496,-0.006413929648847638,-0.022247186651633933,-2.631738748009281e-06,-0.02941995,0.030448066532259718,9.808706233064516
350,139.568,0.6075949367088608,0.010681139154781177,0.00046324478297828466,-0.9999421532699201,-0.000429063954221579,-0.005361523596997412,-0.019100119232957218,-0.0007993032168760559,-0.02941995,0.020567254280155958,9.80665
351,139.644,0.6832298136645962,0.010034795793022942,0.00054951453313012,-0.99994894167692,-0.0004424268597289781,-0.004744125676888524,-0.017487003739763717,-0.0011438343826598166,-0.02941995,0.01476721225681027,9.80665
352,139.724,0.7114093959731543,0.00938664190307766,0.0006410019377331082,-0.9999555561689829,-0.0004685062576961329,-0.004307573868168643,-0.015837585542029308,-0.001511360196695585,-0.02941995,0.011017347530864323,9.80665
353,139.841,0.734375,0.008642832145864773,0.0007790936498604738,-0.999961863386693,-0.0005827809158893825,-0.005021163779828331,-0.013733301955608535,-0.0020796760060123446,-0.02941995,0.020460788271606765,9.80665
354,139.901,0.6517857142857143,0.008261391244730003,0.0008499099124898835,-0.9999650978573135,-0.0006413833047064265,-0.005387107324269151,-0.012654182167700577,-0.002371120010790135,-0.02941995,0.025303578395063836,9.80665
355,140.044,0.5178571428571429,0.02993317316933209,0.017506611407000702,-0.9987221173798194,-0.0036467352104916375,-0.2289727443740711,0.8128605034380582,0.08076070627523696,-0.02941995,0.0294199500000012,9.80665
356,140.093,0.4931506849315068,0.041648437602344365,0.026346055710175044,-0.9980586308678789,-0.005220881448417303,-0.3478907298828529,1.2520482670847117,0.12516938161014918,-0.02941995,0.0294199500000012,9.80665
357,140.211,0.547945205479452,0.07072899481857786,0.04672675236146663,-0.9962478919450211,-0.008531174333208177,-0.5948527141621065,2.175693140700706,0.21963726971599598,-0.030253713765182832,0.02608489493926988,9.814153873886644
358,140.299,0.5742574257425742,0.10268427101291146,0.051210344218342314,-0.992379174782561,-0.005317537211201796,-0.3129553198814252,1.279980661777305,0.14255736546160686,-0.0407353153846159,-0.01584151153846241,9.908488288461543
359,140.404,0.5974025974025974,0.14081272556296753,0.056560084502114284,-0.9877630918046257,-0.0014830838269897428,0.023399525567105672,0.2112328176073679,0.05058702515807689,-0.05324177186234821,-0.0658673374493916,10.021046396761133
360,140.484,0.6967741935483871,0.15230210261007487,0.05996705168610714,-0.9863973794673077,-0.0007259573179289478,0.024411370318156378,-0.1572640134666187,0.034764967829812164,-0.05758068035019399,-0.07692687315174465,10.11550223774321
361,140.604,0.6283783783783784,0.13201975546180914,0.06364822089760193,-0.9889447770272914,-0.004214131364908885,-0.5193958690658925,0.24235439045425622,0.12693085440287244,-0.05300169980544682,-0.03571604824902013,10.27576655680936
362,140.752,0.6692307692307692,0.1211185890151614,0.07488191653852984,-0.9895128747759391,-0.008458546217547816,-0.9031122492961974,0.6210048892459014,0.16198369872862028,-0.15160116311478017,-0.1450098081967569,10.089274437704836
363,140.81,0.6461538461538462,0.1299199146836521,0.0854845129357087,-0.9873515221715401,-0.010068482112052472,-0.7876616315763426,0.6636013398405011,0.10289717764883333,-0.2868043213114846,-0.3361591008196839,9.660354073770462
364,140.904,0.5862068965517241,0.14418413214637932,0.10266803123458587,-0.9838486403644106,-0.01267768856176708,-0.6005520097544973,0.7326369666662359,0.007136264174689849,-0.5059266811475366,-0.6459527819672058,8.965207277049194
365,141.013,0.6933333333333334,0.17168523158593943,0.134791803592728,-0.9738620696313717,-0.022689776515747113,-0.6034685124953665,0.7850904646846997,-0.2949754265506787,-0.5276133361111041,-0.7899023083333311,8.247042412499972
366,141.092,0.6666666666666666,0.1978682193465784,0.16503094418258,-0.9632451623326433,-0.03393073471053885,-0.7309846679369761,0.8073675102657768,-0.6229063702954581,-0.4107896722222082,-0.7714564666666635,7.776673449999944
367,141.236,0.5363128491620112,0.23658740163143085,0.21145600224552766,-0.9471120176449511,-0.04483709026244986,-0.813750359319922,0.822703338438473,-0.9001999055186594,-0.31729257903222086,-0.7756743806451447,7.190805198387055
368,141.324,0.5472972972972973,0.24098464367078345,0.22123054101138753,-0.944138369095667,-0.031004060131518595,-0.5442044172555889,0.7780245869390379,-0.3842415492380281,-0.5156399838709884,-0.8591890774193626,7.413511056451637
369,141.424,0.46987951807228917,0.24598150962459164,0.23233797142713397,-0.940759223016936,-0.015284707710010677,-0.23790221036439618,0.7272532784169683,0.20207476471705266,-0.7410347620967908,-0.9540921419354899,7.666585895161309
370,141.549,0.6515151515151515,0.23638113885735718,0.23878715524669242,-0.9399386950175822,-0.04234086061588272,-0.10744973879818356,0.6589588363965296,0.5670055814818049,-0.5057154803921258,-0.615088470980353,7.886661759803937
371,141.626,0.6458333333333334,0.22764958237239802,0.24143778364197632,-0.9400384242289964,-0.06731233496598074,-0.07197587560204452,0.6160305619239754,0.7263735522242353,-0.2688175823529114,-0.3248885458823154,8.005110708823544
372,141.698,0.5833333333333334,0.21948501007477336,0.24391629331029385,-0.9401316775175915,-0.09066228500763229,-0.038805510016042336,0.5758898377418442,0.8753929534379457,-0.047302664705840214,-0.05353277176465332,8.115868167647081
373,141.844,0.3815789473684211,0.2504245240016405,0.229379716076335,-0.932221952160222,-0.11876925354986975,0.25243451376350123,0.4255433747963052,0.20635540290755705,0.01877272999999941,0.01328901142857174,6.703946021428593
374,141.949,0.4262295081967213,0.274919480014252,0.21800109528098785,-0.9261508199563041,-0.13807409736475434,0.47246985280395093,0.31415993242846174,-0.3206870967028804,0.04819268000000396,0.038506111428575504,5.6112050214284235
375,142.014,0.39344262295081966,0.28179328556106265,0.22381376216581553,-0.9194378610435415,-0.15481444476971384,0.3459523908852855,0.2763850679473218,-0.421047141627673,0.0224930305555515,0.029575611111110532,7.35817855277805
376,142.129,0.5538461538461539,0.2932449663833979,0.2351983361763598,-0.9073081470249181,-0.18484202139009984,0.09962204608714503,0.212221596212622,-0.5792680141471486,-0.026734795833327246,0.011674583333336847,10.656442920832927
377,142.216,0.6382978723404256,0.3005731973470656,0.24355497036178,-0.8990891030117176,-0.20482442141310958,-0.05112052282258312,0.15780714562823592,-0.6600765980059083,-0.05694183870967728,-0.004270637903224571,12.750543061290319
378,142.31,0.48936170212765956,0.2994745212019588,0.25085494773136147,-0.8966736088440601,-0.20795147146740642,0.02648944885379731,0.059352265130129006,-0.48477488804248325,-0.04207369193548409,-0.03772396814515929,12.304498658064523
379,142.444,0.55,0.2979083232929767,0.26126129844970064,-0.893230244817825,-0.21240918111927623,0.13712494039246279,-0.08099830919695386,-0.2348767057542066,-0.02087867419354998,-0.08541275806451111,11.6686481258065
380,142.59,0.7741935483870968,0.263942503271298,0.2612564466041336,-0.8843707120282395,-0.2749072282581971,0.4470028854065888,-0.11324102051759097,-0.6899270072057639,-0.014347472373540759,-0.06719653949416192,9.108355466926024
381,142.663,0.25806451612903225,0.24602453918557243,0.26092523475182694,-0.8797928932332791,-0.3078270094974502,0.6074298230590713,-0.12586450455021927,-0.9385341122920705,-0.011561925875486052,-0.05605435350194326,7.774078694357819
382,142.684,0.5172413793103449,0.24087005636639497,0.2608299546299306,-0.8784759864566477,-0.31729708355257075,0.6535800380001622,-0.12949591776508224,-1.0100512247141058,-0.010760604280155841,-0.05284906712062246,7.390245650194648
383,142.844,1.0,0.23668054278285577,0.2704755408556698,-0.7973694743112656,-0.4724153335171558,0.22768163393952856,0.21349173791936712,-1.235206019632594,-0.0029824347938144846,-0.04220903479381335,9.280831580927817
384,143.157,1.0,0.5223562084513745,0.36621947683898826,-0.6151252579749665,-0.43855720230041073,-1.4826095388565177,3.4446279084762335,-2.9315858101132264,-0.057927653488373344,0.010425674418606916,9.7192372360465
385,143.742,1.0,0.690340818676438,0.1347419277978402,-0.6865593387743444,-0.1832802821237618,-0.09997248408458806,0.5618414992845713,5.352925879116038,-2.572312779045763,-7.36922952282187,0.778672424895882
386,143.809,0.0,0.6924827505085749,0.12232443384469983,-0.6883552355901286,-0.17607207805813763,-0.06770401935989864,0.38142205017578545,3.636395172933927,-2.0652153836099925,-6.126023004979336,2.4090178145227132
387,143.924,0.375,0.6961592006682126,0.10101082482065356,-0.6914377450500564,-0.16369978749773828,-0.012317848563791547,0.0717468763323561,0.6901111250094951,-1.194824331742651,-3.99216107136908,5.207371841494057
388,144.001,0.5714285714285714,0.6973580887940183,0.09621036318679278,-0.6920316614624729,-0.15975723741265624,0.0006507454088450949,-0.0009584805774944191,-0.0016317078760887686,-2.641709950395539,-3.3845733782608507,4.705408972727075
389,144.148,1.0,0.6983451101997835,0.09680895628174484,-0.6916500400547256,-0.1567062482032458,0.0005475052728100551,-0.0009555751126509885,-0.0016510476544131273,-7.496350553557034,-3.071186954347844,1.29804385454565
390,144.233,1.0,0.6989150298725997,0.09713422658616372,-0.6914127643146111,-0.15501141840919944,0.000515683829956444,-0.0009489613575823463,-0.0016473405569021311,-9.34573745,-2.95180165,3.6149144423903757e-16
391,144.293,1.0,0.6993162261172319,0.09733540211652619,-0.6912226343362439,-0.15390959456686587,0.0005312178977746443,-0.0009375677479573165,-0.0016244275249488438,-9.34573745,-2.95180165,3.6149144423903757e-16
392,144.404,1.0,0.7000584391698011,0.09770757684769672,-0.6908708938762645,-0.15187122045854903,0.0005599559232383109,-0.0009164895701510138,-0.001582038415835268,-9.34573745,-2.95180165,3.6149144423903757e-16
393,144.523,1.0,0.700659279840257,0.09808861942731557,-0.6905942701005792,-0.15010798541549536,0.0005707088703275078,-0.0009182363000945762,-0.0015576787673126096,-9.34573745,-2.95180165,3.6149144423903757e-16
394,144.644,1.0,0.7011315204909917,0.09846328595315221,-0.690384506298261,-0.1486155156889776,0.0005673671817021385,-0.0009373396264891204,-0.0015479169383070253,-9.34573745,-2.95180165,3.6149144423903757e-16
395,144.714,1.0,0.7013955879818199,0.09867744967077485,-0.6902686059085343,-0.14777056174847666,0.0005646871768327468,-0.000947244546937253,-0.0015413405261094097,-9.34573745,-2.95180165,3.6149144423903757e-16
396,144.804,1.0,0.701582508921195,0.09890958803237254,-0.6902106935109107,-0.1469927096626456,0.0005487592849827023,-0.0009408150002795473,-0.0015173563456971993,-9.34573745,-2.95180165,3.6149144423903757e-16
397,144.901,1.0,0.701783968155855,0.0991597815998723,-0.6901482768156941,-0.14615435797013873,0.0005315925570998756,-0.0009338853777706864,-0.0014915067290307046,-9.34573745,-2.95180165,3.6149144423903757e-16
398,144.978,1.0,0.7019187605017254,0.09933648282302464,-0.690114723686279,-0.1455463318565691,0.0005205672144318418,-0.000934981542502149,-0.0014797810639488509,-9.34573745,-2.95180165,3.6149144423903757e-16
399,145.134,1.0,0.7020859524465299,0.09960216228248178,-0.690114145656294,-0.1445566649613439,0.0005091944355999999,-0.000965002269309708,-0.0014930838789508855,-9.34573745,-2.95180165,3.6149144423903757e-16
400,145.193,1.0,0.7021491852974496,0.0997026436165073,-0.6901139270423894,-0.14418236786635466,0.000504893192323852,-0.0009763562621407785,-0.001498115071804222,-9.34573745,-2.95180165,3.6149144423903757e-16
401,145.304,1.0,0.7022359059411372,0.0998243912739984,-0.6901385470663496,-0.14355529013186857,0.0005058626018756304,-0.0009690995709633976,-0.0014730889675577728,-9.34573745,-2.95180165,3.6149144423903757e-16
402,145.404,1.0,0.7023108374092295,0.09992740512345087,-0.6901632078488344,-0.14299799660153295,0.0005076339381399103,-0.0009597260336649715,-0.0014471248443047701,-9.34573745,-2.95180165,3.6149144423903757e-16
403,145.507,1.0,0.7023818974737717,0.1000062673156857,-0.6901959039598378,-0.14243492248521133,0.0005062546179033233,-0.0009370734942422128,-0.0014316278256956136,-9.34573745,-2.95180165,3.6149144423903757e-16
404,145.598,1.0,0.7024397728758291,0.1000541019813576,-0.6902306395489175,-0.14194621829877435,0.0005024675433560328,-0.0009066398820323198,-0.001426952113888546,-9.34573745,-2.95180165,3.6149144423903757e-16
405,145.684,1.0,0.7024944683107405,0.10009930836869586,-0.6902634665891466,-0.14148436599071315,0.0004988885498278253,-0.0008778784463174836,-0.001422533309323626,-9.34573745,-2.95180165,3.6149144423903757e-16
406,145.799,1.0,0.702560566601577,0.10012931530596253,-0.6903211798890558,-0.14085099946065924,0.0005121082010236192,-0.0008933029746346676,-0.0013934319760635118,-9.34573745,-2.95180165,3.6149144423903757e-16
407,145.923,1.0,0.7026297289175015,0.10015255227989833,-0.6903875482101826,-0.1401633407369507,0.0005317553896914982,-0.0009260739850597914,-0.0013551066112399224,-9.34573745,-2.95180165,3.6149144423903757e-16
408,146.013,1.0,0.7039071103528249,0.08860713830810345,-0.692329662684001,-0.12832827574538128,0.0005966275805177038,-0.0009977285457084411,0.3714828907917565,-9.34573745,-2.95180165,3.6149144423903757e-16
409,146.095,0.5,0.7056299967959961,0.07282072268699069,-0.6949619414339757,-0.11238105795318493,0.0006787899934475156,-0.001084820869233923,0.8810154818126925,-9.34573745,-2.95180165,3.6149144423903757e-16
410,146.239,0.3333333333333333,0.7081662792817798,0.04334838575650098,-0.6992144993837717,-0.08264942675054397,0.0007597657638680526,-0.0011517998489388814,1.339085438341129,-8.972178914859466,-3.048292784538145,3.7330820014486117e-16
411,146.295,0.5777777777777777,0.7085600459457517,0.02976765745214097,-0.700420184615693,-0.06899582637460763,0.0007145815719682199,-0.001073735713749191,0.988308541054194,-8.374485258634735,-3.202678599799146,3.922150095941751e-16
412,146.437,0.6082474226804123,0.7095585257008239,-0.004669189319645314,-0.7034774578823519,-0.03437419684989558,0.0006000073710793044,-0.0008757873709466682,0.09883855150476051,-6.858904916064166,-3.5941569170682968,4.401572764121009e-16
413,146.497,1.0,0.7096812337294222,-0.008570507984637708,-0.7038183039386837,-0.030311092115667647,0.000570039568468924,-0.0008664147797971998,-0.0013600762691348732,-7.236993887200139,-2.9962061611998374,3.66929428489896e-16
414,146.608,1.0,0.7097069737905232,-0.008623764215585524,-0.7038091327188244,-0.029902218430479445,0.0005270068021491166,-0.0008990372950211172,-0.00130118855042383,-8.621614414000014,-1.3764613939999837,1.6856790403119832e-16
415,146.726,0.9918032786885246,0.7097325554883204,-0.008686065508524023,-0.7038010349210543,-0.02946658836670288,0.0004980888459831463,-0.0009257775861769917,-0.0012483229865320029,-9.80665,0.00980665,-1.2009682532858392e-18
416,146.82,0.991869918699187,0.7097470720136568,-0.008754406107096786,-0.7038000190853355,-0.029116364286517253,0.0005304243918508258,-0.0009209554698318249,-0.0012382438774220653,-9.80665,0.00980665,-1.2009682532858392e-18
417,146.884,1.0,0.7097569556053752,-0.008800935876337814,-0.7037993274525056,-0.028877913848944073,0.0005524400826543512,-0.0009176723267883072,-0.0012313815052621083,-9.80665,0.00980665,-1.2009682532858392e-18
418,147.013,1.0,0.7097554855532225,-0.008904682801778967,-0.7038192098724653,-0.028393695946133567,0.0005613456524730438,-0.0009278123326362133,-0.0012325677265639442,-9.80665,0.00980665,-1.2009682532858392e-18
419,147.084,0.9836065573770492,0.7097411366905114,-0.008968088189719775,-0.7038436197749469,-0.028124915358451418,0.0005437967045588862,-0.0009439999118922237,-0.0012427263075033145,-9.80665,0.00980665,-1.2009682532858392e-18
420,147.181,1.0,0.7097215333146947,-0.009054712452117792,-0.7038769685149572,-0.027757708076688443,0.0005198213813522174,-0.0009661153370729729,-0.001256604932166963,-9.80665,0.00980665,-1.2009682532858392e-18
421,147.309,1.0,0.7096631863069365,-0.009203841894721726,-0.7039552425715156,-0.027207056343755608,0.0005409909145388177,-0.0009480043817399398,-0.0012028394514071023,-9.80665,0.0049495827830190915,-6.061490712339178e-19
422,147.447,0.9831932773109243,0.7095948310856807,-0.009365953890505358,-0.704043961227369,-0.026635710761996022,0.000564991808944474,-0.0009224161208059981,-0.0011438861404484794,-9.80665,0.0,0.0
423,147.507,0.9915966386554622,0.7095684434676747,-0.009426095180263796,-0.7040768871290293,-0.026444226599417413,0.0005584788637530189,-0.0009189543371885704,-0.0011423179420524134,-9.80665,0.0,0.0
424,147.601,1.0,0.7095271028661319,-0.009520316534218674,-0.7041284710416302,-0.02614423474471095,0.0005482752496197405,-0.0009135308761879339,-0.001139861097898577,-9.80665,0.0,0.0
425,147.704,1.0,0.7094818041218882,-0.00962355908163733,-0.7041849938394803,-0.025815520265617654,0.0005370946937077423,-0.0009075881476446826,-0.0011371690239853306,-9.80665,0.0,0.0
426,147.814,1.0,0.7094231430749655,-0.009765644839895418,-0.7042565091136688,-0.025415985781136994,0.0005438148845706465,-0.0009215465851877697,-0.0011101600958216128,-9.80665,0.004265494105690868,-5.223723703316224e-19
427,147.896,1.0,0.7093791989944622,-0.009872228511756669,-0.7043100535649458,-0.02511713771888612,0.00054921449883273,-0.0009323763533313627,-0.0010895217547374925,-9.80665,0.0075343774390238235,-9.226951214268559e-19
428,148.015,1.0,0.7093174770915628,-0.010024008263220953,-0.7043843913502285,-0.024712785476338196,0.0005565550822052218,-0.0009477853119202619,-0.0010881489356126285,-9.80665,0.00980665,-1.2009682532858392e-18
429,148.074,1.0,0.7092878101711271,-0.01009794011788558,-0.7044197131864899,-0.024525682778443338,0.0005599687013225968,-0.000955284924702757,-0.0011004945379218091,-9.80665,0.00980665,-1.2009682532858392e-18
430,148.213,0.9918032786885246,0.7092179460726521,-0.010272383570650134,-0.7045027885811057,-0.024086933169727053,0.0005669850702397534,-0.0009710197146050645,-0.0011240177904255743,-9.80665,0.00980665,-1.2009682532858392e-18
431,148.316,1.0,0.7091664883291527,-0.010404484000954197,-0.7045628446744009,-0.0237837763950413,0.0005612037405371669,-0.0009619811140000826,-0.0010819145711138864,-9.80665,0.00980665,-1.2009682532858392e-18
432,148.468,1.0,0.7090975449446586,-0.010581472926992642,-0.704643308178039,-0.023377605182355553,0.0005534578813239932,-0.000949871144257486,-0.0010255044326186178,-9.80665,0.00980665,-1.2009682532858392e-18
433,148.523,1.0,0.7090975449446586,-0.010581472926992642,-0.704643308178039,-0.023377605182355553,0.0005534578813239932,-0.000949871144257486,-0.0010255044326186178,-9.80665,0.00980665,-1.2009682532858392e-18
434,148.614,1.0,0.7090975449446586,-0.010581472926992642,-0.704643308178039,-0.023377605182355553,0.0005534578813239932,-0.000949871144257486,-0.0010255044326186178,-9.80665,0.00980665,-1.2009682532858392e-18
