,time,img_sim,orientation.x,orientation.y,orientation.z,orientation.w,angular_velocity.x,angular_velocity.y,angular_velocity.z,linear_acceleration.x,linear_acceleration.y,linear_acceleration.z
0,151.293,0.939297124600639,-0.00043765037731479745,0.0005984179118870828,-0.7071789627918819,-0.7070342035051839,0.00048261705806533755,-0.0004290820294580276,-0.00036715326474650656,0.0,-0.013960054705881384,9.80665
1,151.346,0.9935691318327974,-0.00043865126869511355,0.0005988934902875117,-0.7071780408910742,-0.7070351245711549,0.0004926623639595867,-0.0004444304667641513,-0.0003532908204029869,0.0,-0.0159982996078421,9.80665
2,151.454,0.9967845659163987,-0.0004407879663234257,0.000599901366378803,-0.7071759872829818,-0.7070371764102702,0.0005060065653635092,-0.00046974431446692995,-0.0003384824560367027,0.0,-0.0196132999999988,9.80665
3,151.565,0.9936102236421726,-0.00044365439689639116,0.0006012048030566889,-0.7071726688687229,-0.707040492538536,0.00047054998201944223,-0.00045461732145259446,-0.0004160068990466576,0.0,-0.0196132999999988,9.80665
4,151.657,0.987220447284345,-0.0004460301771911019,0.0006022851289518738,-0.7071699184713192,-0.7070432410412427,0.0004411625435721007,-0.00044207963354881807,-0.00048026139235222065,0.0,-0.0196132999999988,9.80665
5,151.774,1.0,-0.0004484497607653177,0.0006023996918837195,-0.7071675239091156,-0.7070456343985845,0.00044339213485363724,-0.0004298161116894345,-0.00046771025273483667,0.0,-0.016200585799999227,9.80665
6,151.867,0.9936102236421726,-0.0004502080728641118,0.000602145580339155,-0.7071659229264248,-0.707047234753765,0.00045601923833600886,-0.0004210771631915143,-0.00043189596151933904,0.0,-0.012552511999999648,9.80665
7,151.971,0.9936102236421726,-0.0004519838322285571,0.0006022088243414305,-0.7071639843247787,-0.7070491724912111,0.00046960845682769914,-0.0004210726916789993,-0.00039817501441575745,0.0,-0.011140354399998479,9.80665
8,152.056,0.9968152866242038,-0.0004531145788408631,0.000602845101232053,-0.707162150422501,-0.7070510054137881,0.00047982082446105774,-0.0004375057708239183,-0.0003812651301268488,0.0,-0.01447461539999879,9.80665
9,152.164,0.9904458598726115,-0.00045455129218355744,0.0006036535471636672,-0.7071598202878422,-0.7070533343036506,0.0004927965386304975,-0.0004583854478551028,-0.00035977963008918353,0.0,-0.01871108819999784,9.80665
10,152.258,0.9936305732484076,-0.0004579697604539578,0.0006018634373918232,-0.707157509573039,-0.7070556446474542,0.0004912621621042491,-0.0004634820602368564,-0.0003779687713831656,0.0,-0.0196132999999988,9.80665
11,152.36,0.9968152866242038,-0.0004624412415396083,0.0005990443889564809,-0.707154902851813,-0.7070582512165364,0.0004850879684090613,-0.000464415883878246,-0.00041067307023331576,0.0,-0.0196132999999988,9.80665
12,152.454,0.9485530546623794,-0.0004660066415812291,0.0005972241952428704,-0.7071524550246256,-0.7070606986006295,0.0004811902663204817,-0.0004605240575037908,-0.0004354152599116787,0.0,-0.0196132999999988,9.80665
13,152.544,0.9967845659163987,-0.0004670118367706887,0.0005988543148310926,-0.7071499138046239,-0.7070632380828871,0.0004852307836990803,-0.0004361882074736061,-0.00043569929117802527,0.0,-0.0196132999999988,9.80665
14,152.623,0.9903846153846154,-0.0004678941747703251,0.000600285197580754,-0.7071476831781779,-0.7070654671839799,0.0004887774600647381,-0.0004148267391137837,-0.00043594860751181827,0.0,-0.0196132999999988,9.80665
15,152.726,0.9935691318327974,-0.0004692618466808448,0.0006017521385782077,-0.7071451846869881,-0.7070679638151499,0.0004769270014949191,-0.0003917686883360167,-0.000422855615615849,0.0,-0.0196132999999988,9.80665
16,152.86,0.9967845659163987,-0.0004715050288164751,0.0006028095183049015,-0.7071428091026534,-0.707070337254486,0.00042633782560005717,-0.0003720034910365937,-0.00037717546336352755,0.0,-0.0196132999999988,9.80665
17,152.968,0.9903846153846154,-0.0004735250015032229,0.0006030831063274947,-0.707140814031426,-0.7070723309433361,0.00041261181584558267,-0.0003686438663862588,-0.0003522374383173873,0.0,-0.0196132999999988,9.80665
18,153.04,0.9903846153846154,-0.0004752227614266258,0.0006023073393648529,-0.7071393508134073,-0.7070737938134244,0.0004482492373790494,-0.00038721984019502494,-0.0003552823825739315,0.0,-0.0196132999999988,9.80665
19,153.16,0.9968051118210862,-0.00047805236129896397,0.0006010143944271168,-0.7071369121167093,-0.7070762319302382,0.0005076449399348273,-0.00041817979654296843,-0.0003603572896681719,0.0,-0.0196132999999988,9.80665
20,153.261,0.9936102236421726,-0.00048152663751303967,0.0006003650960109619,-0.7071355169466279,-0.7070776254016357,0.0005125518026761729,-0.0004450349500402765,-0.0003722424921579635,0.0,-0.016710531599999433,9.80665
21,153.36,0.9904153354632588,-0.0004853229078919213,0.0005998856339202692,-0.7071343845159643,-0.7070787557342888,0.0005012374802026895,-0.00047164342529140463,-0.00038661535014398416,0.0,-0.012827098199998728,9.80665
22,153.48,0.9968152866242038,-0.0004893055842672497,0.0005992995578720275,-0.7071326881895587,-0.7070804499504759,0.0004927857893053441,-0.0004902892671525489,-0.00039936697040684436,0.0,-0.011493393799997935,9.80665
23,153.551,0.9904458598726115,-0.0004910063176665555,0.0005989475942137527,-0.7071313415886972,-0.7070817957613673,0.0004933609515428541,-0.00048690497968346,-0.0004019638048484912,0.0,-0.014278482399997855,9.80665
24,153.676,0.9936305732484076,-0.0004940005666089954,0.0005983279398858042,-0.7071289708125326,-0.7070841651467394,0.0004943735611159353,-0.0004809467270970357,-0.00040653569647110905,0.0,-0.019181807399997856,9.80665
25,153.741,0.9968152866242038,-0.000497313609372795,0.000596598775814743,-0.7071276281822875,-0.7070855069629869,0.000500112107023597,-0.00047769924625754354,-0.000416475337930024,0.0,-0.0196132999999988,9.80665
26,153.88,0.9485530546623794,-0.0005051633740228703,0.0005922881425899656,-0.707124709177287,-0.7070884241877371,0.000514654174447058,-0.0004706896445713946,-0.00044102509319781963,0.0,-0.0196132999999988,9.80665
27,153.946,0.9967845659163987,-0.0005083982710270064,0.0005906461692053206,-0.7071234074396237,-0.7070897250832174,0.0005189964019227798,-0.0004656032361090218,-0.00045016028359532497,0.0,-0.0196132999999988,9.80665
28,154.08,0.9903846153846154,-0.0005086354326590911,0.0005925176482688443,-0.7071218480427207,-0.7070912828102948,0.0004948605250101535,-0.0004326694980263709,-0.0004362842049449681,0.0,-0.0196132999999988,9.80665
29,154.156,0.9935897435897436,-0.0005087699422414675,0.0005935790841556189,-0.7071209636086564,-0.7070921662972939,0.0004811715201940398,-0.00041399066150188597,-0.0004284141901880508,0.0,-0.0196132999999988,9.80665
30,154.261,0.9967948717948718,-0.0005101785729310792,0.0005943376674988258,-0.7071188829509685,-0.7070942453704155,0.0004844598045880595,-0.00042630536704364757,-0.0004297283151561752,0.0,-0.0196132999999988,9.80665
31,154.36,0.9903846153846154,-0.0005119896908898859,0.0005947733066058276,-0.7071165820014129,-0.7070965447168891,0.0004963290449083467,-0.0004529734313732946,-0.00043578104480574255,0.0,-0.0196132999999988,9.80665
32,154.455,0.9903846153846154,-0.000513731878981384,0.0005956189738523729,-0.7071143008488169,-0.7070988239573767,0.0005048299451399748,-0.00047129584148144333,-0.000444324017852086,0.0,-0.0196132999999988,9.80665
33,154.56,0.9968051118210862,-0.0005156789907630228,0.0005987222577154075,-0.7071114085111008,-0.7071017122861045,0.0004995761006270126,-0.00045468859621379716,-0.0004676349798168798,0.0,-0.0196132999999988,9.80665
34,154.68,0.9904153354632588,-0.0005179042613706102,0.0006022688678445902,-0.7071081029822823,-0.7071050132332222,0.0004935717068979122,-0.00043570888733648465,-0.0004942760792052192,0.0,-0.0196132999999988,9.80665
35,154.76,0.9968152866242038,-0.0005182524708567491,0.0006047979870376942,-0.7071064776945191,-0.7071066360974807,0.0004819949849043074,-0.00041898887336720236,-0.00045021589472891207,0.0,-0.0196132999999988,9.80665
36,154.895,0.9968152866242038,-0.0005186563650292697,0.0006090925286308701,-0.7071038286149492,-0.7071092811894855,0.00046123371273279213,-0.0003901157681830231,-0.0003658607774414132,0.0,-0.0196132999999988,9.80665
37,154.959,0.9904458598726115,-0.0005194875679137071,0.0006103054735750786,-0.7071024565297669,-0.7071106516083471,0.00045029591838174844,-0.0003916840991201626,-0.00034594193290746775,0.0,-0.0196132999999988,9.80665
38,155.078,0.9936305732484076,-0.0005233039353427421,0.0006096394269912469,-0.7070994927423044,-0.7071136130929172,0.00042607005038972036,-0.0004487558217517194,-0.0003801542691920069,0.0,-0.0196132999999988,9.80665
39,155.171,0.9968152866242038,-0.0005262864745940044,0.0006091189031904371,-0.7070971765050439,-0.7071159275304383,0.00040713722918586865,-0.0004933580923797378,-0.0004068916412463076,0.0,-0.0196132999999988,9.80665
40,155.286,0.9485530546623794,-0.0005275526326170592,0.0006116203119963585,-0.7070947564463808,-0.7071183444029673,0.0004285837789631961,-0.000479967412687246,-0.00040763640842137074,0.0,-0.015706268127489136,9.80665
41,155.36,0.9935691318327974,-0.0005281336090628398,0.0006135334815470311,-0.7070932420570947,-0.7071198566493218,0.00044671394961952977,-0.00046473481289790026,-0.00040499630140185163,0.0,-0.012815064541831341,9.80665
42,155.466,0.9935691318327974,-0.000528586084561326,0.0006162762283436382,-0.7070909197400312,-0.7071221761538701,0.0004739043276058499,-0.0004486626125872136,-0.0004037836426869032,0.0,-0.010944221399998656,9.80665
43,155.534,0.9935897435897436,-0.0005282295440386212,0.0006180395769518427,-0.7070891692474117,-0.7071239252801401,0.0004934254871914106,-0.00044814191386103653,-0.0004073817329481233,0.0,-0.013611630199998014,9.80665
44,155.665,0.9967948717948718,-0.0005275426792081163,0.0006214366161823551,-0.7070857969748653,-0.7071272949204546,0.0005310324269812497,-0.0004471388030797245,-0.0004143133480101813,0.0,-0.018750314799998023,9.80665
45,155.731,0.9839228295819936,-0.0005278853353268354,0.0006226147361341781,-0.7070842843536821,-0.7071288061569244,0.0005320587744936367,-0.00044931287039071235,-0.0004313827222213086,0.0,-0.0196132999999988,9.80665
46,155.854,1.0,-0.0005291656743747659,0.0006243133236820537,-0.707081639056039,-0.7071314488194069,0.0005172727159224449,-0.00045586130279116346,-0.0004758452267851685,0.0,-0.0196132999999988,9.80665
47,155.945,0.9936102236421726,-0.000529883888125811,0.0006255459460140082,-0.7070795941440445,-0.7071334919627786,0.000507542092353105,-0.00045933538349345553,-0.0005029370361007817,0.0,-0.01929948719999953,9.80665
48,156.065,0.987220447284345,-0.0005276975650038945,0.0006268422606916639,-0.7070756960378312,-0.7071373902126181,0.0005112465023994441,-0.0004451636807061749,-0.00045926687354222445,0.0,-0.014592295199999352,9.80665
49,156.188,0.9968152866242038,-0.0005254762208446052,0.0006281777942472791,-0.7070717057782688,-0.7071413805985077,0.0005148221775889442,-0.00043080892716534317,-0.00041484595579095236,0.0,-0.009845876599997872,9.80665
50,156.248,0.9936305732484076,-0.0005255612817241626,0.0006292346122472206,-0.7070700746835517,-0.7071430105116719,0.0005033936761319678,-0.00043399758473969887,-0.00041347080678679095,0.0,-0.01219947259999796,9.80665
51,156.4,0.9904458598726115,-0.0005257767692857082,0.0006319118845137392,-0.7070659425769347,-0.7071471396250212,0.0004744414724409592,-0.00044207551726140054,-0.0004099870959762485,0.0,-0.01816191579999856,9.80665
52,156.479,0.9968051118210862,-0.0005272008715407669,0.000632049960448334,-0.7070639120598756,-0.707149168714534,0.00046050424035638544,-0.00044243832398205995,-0.0004114197292365134,0.0,-0.0196132999999988,9.80665
53,156.556,1.0,-0.0005297155596250969,0.0006311083082007127,-0.7070620334884617,-0.7071510460045913,0.0004478732040151954,-0.00043949851510114975,-0.00041560090589337043,0.0,-0.0196132999999988,9.80665
54,156.656,0.9485530546623794,-0.0005329813883060448,0.000629885383203802,-0.7070595937853267,-0.7071534840436268,0.00043146926071494917,-0.00043568058148957814,-0.00042103100544773004,0.0,-0.0196132999999988,9.80665
55,156.768,0.9935691318327974,-0.0005338945018155536,0.0006315523501767649,-0.7070567488605102,-0.70715632639619,0.0004469188356306376,-0.00045047815144061827,-0.00042411369504407025,0.0,-0.016435945399999236,9.80665
56,156.864,0.9935691318327974,-0.0005337768207707115,0.0006339773264398828,-0.7070542734627684,-0.7071587993567376,0.00047125637321732746,-0.0004694187492132173,-0.00042577219428494554,0.0,-0.012670191799999094,9.80665
57,156.946,0.9935897435897436,-0.0005336863136657393,0.0006360246206970725,-0.7070521974297712,-0.7071608733224839,0.0004886072722729314,-0.0004832346532493839,-0.00042611962929368154,0.0,-0.0098066499999988,9.80665
58,157.061,0.9967948717948718,-0.0005336732742358281,0.0006386223670749687,-0.7070497223831907,-0.7071633456350312,0.00047383909812197153,-0.0004757361141964797,-0.00041444437624886673,0.0,-0.0098066499999988,9.80665
59,157.16,0.9839228295819936,-0.0005336620489874696,0.0006408586878698527,-0.707047591690917,-0.707165473973659,0.00046112562646158237,-0.0004692808501422416,-0.00040439350623637586,0.0,-0.0098066499999988,9.80665
60,157.252,1.0,-0.0005334313593401911,0.0006427997195700193,-0.7070450515015786,-0.7071680121296969,0.00046780197955371196,-0.00047601694454516957,-0.0003958293153306992,0.0,-0.012346220717130424,9.80665
61,157.369,0.9968051118210862,-0.0005330216285515563,0.0006451957464219208,-0.7070415251369765,-0.7071715359897841,0.0004860605739346487,-0.0004913108622788856,-0.0003853478351611624,0.0,-0.016917448007967125,9.80665
62,157.477,0.9904153354632588,-0.0005327862593900806,0.0006468745760118611,-0.7070380554775896,-0.7071750036428556,0.0004988046837970622,-0.0004887647256255103,-0.0004010479133576242,0.0,-0.018083462599998185,9.80665
63,157.544,1.0,-0.0005327970256795942,0.0006473311863601412,-0.7070356675143246,-0.7071773906968208,0.0005021997299045336,-0.00046889557223766366,-0.0004386391462758312,0.0,-0.015455280399997898,9.80665
64,157.659,0.9936305732484076,-0.0005328155051317441,0.0006481149205400248,-0.7070315687714069,-0.707181487879,0.0005080270478501918,-0.00043479180149733917,-0.0005031614117324372,0.0,-0.010944221399998656,9.80665
65,157.76,0.9872611464968153,-0.0005347964489804949,0.0006467227654324224,-0.7070283004002029,-0.7071847553044619,0.0008351077344268684,-0.00044511195551604106,-0.0004818445211276398,0.0,-0.012630965199998907,9.80665
66,157.88,0.9968051118210862,-0.00053809025533548,0.000644073111394873,-0.7070245757749296,-0.7071884790094608,0.0013777930494398207,-0.0004766456810757537,-0.0004191983165219388,0.0,-0.017338157199999087,9.80665
67,157.96,1.0,-0.0005398291227496024,0.000643016064094769,-0.7070221012640434,-0.7071909525926344,0.0015370956000405368,-0.0005006946041248818,-0.0003953957674093602,0.0,-0.017887329599997247,9.808375970400002
68,158.054,0.9485530546623794,-0.0005404566197889669,0.0006439715263173225,-0.7070192202694199,-0.7071938315239017,0.0010970245520583637,-0.0005383271723985728,-0.00042306787101552295,0.0,-0.01051272879999771,9.8157505712
69,158.137,0.9935691318327974,-0.000541010686323725,0.0006448151791308538,-0.707016676412465,-0.7071963735589567,0.0007084511799038745,-0.0005715559294913014,-0.00044750174973160384,0.0,-0.004001113199997833,9.822262186800002
70,158.28,0.9903536977491961,-0.0005423214041570413,0.0006472975670943618,-0.7070120885695628,-0.7072009569211762,0.0004945482353214209,-0.0005454068719409342,-0.0004625950646586716,0.0,-0.0036088471999993063,9.8190456056
71,158.357,0.9935897435897436,-0.0005431334757116155,0.0006489413487701136,-0.7070095569852611,-0.7072034856922977,0.0005153541433392122,-0.0005064325456041787,-0.00046266179252415894,0.0,-0.006629295399999236,9.8130047092
72,158.451,0.9935897435897436,-0.000544181532989199,0.0006509082404820698,-0.7070064979597454,-0.7072065412736187,0.0005352694028988473,-0.00046405851957388174,-0.0004619082889985289,0.0,-0.010316595799999004,9.80665
73,158.547,0.9903225806451613,-0.0005456126728368796,0.0006526637022444419,-0.7070035741664558,-0.7072094614862899,0.0005207108194008456,-0.0004539042350370428,-0.0004558255977462971,0.0,-0.014082349399999148,9.80665
74,158.676,1.0,-0.0005475357670072001,0.0006550226039876292,-0.7069996453192229,-0.7072133855220669,0.000501147722825408,-0.00044025941519066703,-0.0004476519813761115,0.0,-0.019142580799998782,9.80665
75,158.767,0.9968051118210862,-0.0005481789371904738,0.0006564323501532033,-0.7069967242173759,-0.7072163039060536,0.0005051014183554805,-0.0004725557102356139,-0.00044361579627729916,0.0,-0.016514398599998495,9.80665
76,158.888,0.9904153354632588,-0.0005488900460762961,0.000658255488468122,-0.7069928099015532,-0.7072202147446073,0.0005139444023370756,-0.0005239662830717934,-0.0004385983571410172,0.0,-0.01176797999999813,9.80665
77,158.963,1.0,-0.0005495528891552408,0.0006592956226151407,-0.706990339480811,-0.7072226828847221,0.0005215950310230264,-0.0005327338236384066,-0.0004363983054645359,0.0,-0.010787314999999022,9.80665
78,159.075,0.9841269841269841,-0.0005512059931702004,0.0006605803576223659,-0.7069865183326153,-0.7072265002529652,0.0005394993647933007,-0.0004768391135148702,-0.0004358305563218891,0.0,-0.015180694199998818,9.80665
79,159.13,0.9840764331210191,-0.0005520177853204039,0.0006612112542776998,-0.7069846418759121,-0.7072283748534416,0.0005482916715554905,-0.00044939081836491466,-0.0004355517509393393,0.0,-0.017338157199999087,9.80665
80,159.258,0.9968051118210862,-0.0005569604808875799,0.0006594590659016376,-0.7069801601866548,-0.7072328526878896,0.0005406304541975208,-0.0004457988357171495,-0.00043737147701904236,0.0,-0.01686743799999795,9.80665
81,159.349,1.0,-0.0005622730918862634,0.0006563163190525374,-0.7069769064421734,-0.707236103965837,0.0005186174183618274,-0.00047875837562605795,-0.0004401193377561867,0.0,-0.013297817399998746,9.80665
82,159.48,0.9487179487179487,-0.0005684032520648123,0.0006537401772828573,-0.7069723145981304,-0.707240691637635,0.0005072928257286553,-0.0005068836496211588,-0.00044095497811213124,0.0,-0.0098066499999988,9.80665
83,159.56,0.9903846153846154,-0.0005701828898955818,0.0006546878605592382,-0.706969629625884,-0.7072433732576515,0.0005267302356660401,-0.0004990553059615182,-0.000437427686993032,0.0,-0.0098066499999988,9.80665
84,159.66,0.9935897435897436,-0.0005724074371840432,0.0006558724646547141,-0.7069662734105762,-0.7072467252826723,0.0005510269980877658,-0.0004892698763869695,-0.00043301857309415895,0.0,-0.0098066499999988,9.80665
85,159.752,0.9967948717948718,-0.0005732805852738829,0.0006566786325389192,-0.7069633704615781,-0.7072496256096056,0.0005605468563735494,-0.0004895724155940126,-0.0004024952077306709,0.0,-0.012317152399999639,9.80665
86,159.867,0.9904153354632588,-0.0005737302978933063,0.0006575312115203138,-0.7069598428209238,-0.7072531506469754,0.0005654285431373865,-0.000495039334986359,-0.0003498668710235496,0.0,-0.01682821139999888,9.80665
87,159.957,0.987220447284345,-0.0005740559679078737,0.000658367089870284,-0.7069571752045236,-0.7072558161177216,0.0005661888599861407,-0.0005054692132398506,-0.00032357776258140977,0.0,-0.0196132999999988,9.80665
88,160.025,0.9936102236421726,-0.0005742278338059702,0.0006594747866092286,-0.7069554226593653,-0.7072575667359431,0.0005581233652774223,-0.000530717433430261,-0.0003457785779610333,0.0,-0.0196132999999988,9.80665
89,160.158,0.9936102236421726,-0.0005745639832831294,0.0006616413111133399,-0.7069519948872175,-0.7072609907392293,0.0005423482065089048,-0.000580099981743842,-0.00038920076098293024,0.0,-0.0196132999999988,9.80665
90,160.28,0.9936102236421726,-0.0005758534290672114,0.0006633326113383804,-0.7069482274683216,-0.7072647538415351,0.0005133180966952347,-0.0005451024593654476,-0.0003973418013585438,0.0,-0.0196132999999988,9.80665
91,160.356,0.9936305732484076,-0.0005768559868620443,0.000664326072175691,-0.7069457539680191,-0.7072672244782312,0.0004922761722097581,-0.0005069897455410205,-0.00039597591862127374,0.0,-0.0196132999999988,9.80665
92,160.441,0.9936305732484076,-0.000578020986441476,0.0006654172426176118,-0.7069429673276572,-0.7072700078853684,0.0004703011252431271,-0.00046685311096382644,-0.00039600196041248076,0.0,-0.0196132999999988,9.80665
93,160.559,0.9904458598726115,-0.0005808672654721644,0.0006663715776180394,-0.7069385302392599,-0.7072744396276861,0.0004836119575967705,-0.00048111620256157783,-0.0004397146248414478,0.0,-0.0196132999999988,9.80665
94,160.654,0.9968051118210862,-0.0005831587613019561,0.000667139898169231,-0.7069349580070757,-0.7072780075558232,0.0004943283056780939,-0.000492599200034344,-0.0004749070241698546,0.0,-0.0196132999999988,9.80665
95,160.748,0.9453376205787781,-0.0005905937595746613,0.0006620042363540669,-0.7069320428522279,-0.7072809197836176,0.0005072841187939051,-0.0005193970119580636,-0.0004698066739365451,0.0,-0.0196132999999988,9.80665
96,160.861,0.9871382636655949,-0.0006030517910622807,0.0006518141982587227,-0.7069289604537649,-0.7072839995705422,0.0005244610388763252,-0.0005621262812055655,-0.0004364801023621106,0.0,-0.0196132999999988,9.80665
97,160.92,0.9808306709265175,-0.0006095564269717454,0.0006464937358903573,-0.706927351059877,-0.7072856076008834,0.0005334295192733406,-0.0005844362536445258,-0.0004190795030444862,0.0,-0.0196132999999988,9.80665
98,161.03,0.9935897435897436,-0.0006109620719726383,0.0006463380106629283,-0.7069241740520437,-0.7072887819584901,0.0005321090240031475,-0.0005649691922590099,-0.000422766007948668,0.0,-0.0196132999999988,9.80665
99,161.168,0.9967948717948718,-0.0006100938416849003,0.000648539210685274,-0.7069201450425814,-0.7072928076166082,0.0005260240612551562,-0.0005255589517764696,-0.0004362587514333444,0.0,-0.0196132999999988,9.80665
100,161.24,0.9903846153846154,-0.0006078316979499865,0.0006521784650293941,-0.7069179028281055,-0.7072950471936881,0.0005046209618449129,-0.0005152212125249188,-0.00044024823000654654,0.0,-0.01757351679999798,9.80665
101,161.368,0.9871794871794872,-0.0006025730806984688,0.0006603513631170903,-0.7069138208587246,-0.7072991238665917,0.00045410718768834797,-0.0005038338643498714,-0.0004452550201676788,0.0,-0.012552511999998532,9.80665
102,161.495,0.9968051118210862,-0.0005962759358723105,0.0006694038859718839,-0.7069098662070661,-0.7073030731459762,0.0004485856564715568,-0.000500924828927965,-0.0004496017151977871,0.0,-0.0098066499999988,9.80665
103,161.578,0.9904153354632588,-0.0005912939868040846,0.0006760773323698823,-0.7069073582606412,-0.707305577487343,0.00048077100189403274,-0.0005057569150812934,-0.00045194407226517835,0.0,-0.0098066499999988,9.80665
104,161.656,0.9968152866242038,-0.000586612155149607,0.0006823487639246282,-0.7069050013953262,-0.7073079309647721,0.0005110174710862408,-0.000510297911707313,-0.0004541453234851365,0.0,-0.0098066499999988,9.80665
105,161.731,0.9968152866242038,-0.0005826246793655645,0.0006881104955059288,-0.7069024762874686,-0.7073104523320853,0.0005221912434790281,-0.0005148227300960576,-0.0004502433070447288,0.0,-0.011493393799999049,9.80665
106,161.839,0.9904458598726115,-0.0005774338368471066,0.0006961196664623048,-0.7068985626971097,-0.7073143600185052,0.0005190892938990143,-0.0005215082953218378,-0.000438174699200316,0.0,-0.015729866599999212,9.80665
107,161.953,0.9936102236421726,-0.0005725184687388903,0.0007037286659240985,-0.7068944306210181,-0.7073184862102199,0.0005194660653248906,-0.0005245093403261615,-0.0004247384284070087,0.0,-0.01902724521912174,9.80665
108,162.052,0.9968051118210862,-0.0005714816364613289,0.0007054925780858685,-0.7068908361404845,-0.7073220775726964,0.000540719551694732,-0.0005038685677387558,-0.0004090741186298842,0.0,-0.01515928366533736,9.80665
109,162.164,0.9455128205128205,-0.0005703086544907543,0.0007074881150769619,-0.7068867696574566,-0.7073261405282253,0.0005647638999111197,-0.00048051739067017435,-0.0003913528792860655,0.0,-0.010783407968126494,9.80665
110,162.267,0.9935691318327974,-0.0005675000304146728,0.0007118005068797613,-0.7068829361625986,-0.7073299695060358,0.000547600986508943,-0.0004565012353719258,-0.00042589835777699447,0.0,-0.0098066499999988,9.80665
111,162.347,0.9903536977491961,-0.0005648879301650685,0.0007157666191245987,-0.70687993534439,-0.7073329664989529,0.0005244933399296944,-0.000437215246665979,-0.00046538667805703243,0.0,-0.0098066499999988,9.80665
112,162.454,0.9935897435897436,-0.0005619455192653568,0.0007209600231867819,-0.7068757502521843,-0.7073371460039776,0.0005053151854983251,-0.00042427737705281527,-0.0005057603687761518,0.0,-0.0098066499999988,9.80665
113,162.531,0.9967948717948718,-0.0005620843749737523,0.00072424191422075,-0.7068720366312478,-0.7073408536770882,0.0005395166294697661,-0.0004675896005257529,-0.0004838910520790338,0.0,-0.0098066499999988,9.80665
114,162.649,0.9712460063897763,-0.000562297166838566,0.0007292713056754025,-0.7068663456277348,-0.7073465355657511,0.0005919292319195059,-0.0005339641767570067,-0.00045037703428345104,0.0,-0.0098066499999988,9.80665
115,162.76,0.9840764331210191,-0.0005616922925555691,0.0007319809327184441,-0.7068614407575458,-0.7073514347250767,0.000587594090592201,-0.0005133000239695304,-0.0004295934269509426,0.0,-0.013124141263938866,9.80665
116,162.882,0.9968051118210862,-0.0005608330094182834,0.0007344707889078907,-0.7068561581664982,-0.7073567117309727,0.0005698724064307761,-0.0004705141132288886,-0.00040934509320745253,0.0,-0.01757176691449738,9.80665
117,162.96,0.9904153354632588,-0.0005600870435110029,0.0007362366927700584,-0.7068527240141071,-0.7073601422086737,0.0005604883353225876,-0.00046160175558180585,-0.00040496857417747815,0.0,-0.0196132999999988,9.80665
118,163.072,1.0,-0.0005582973809476557,0.0007394084261353521,-0.706847585471924,-0.7073652750947867,0.0005541271041147402,-0.0005162123283371401,-0.0004300046372227403,0.0,-0.0196132999999988,9.80665
119,163.172,0.9809523809523809,-0.0005566994679446672,0.0007422403309257931,-0.7068429974878319,-0.7073698580288161,0.0005484474333934481,-0.0005649717682972594,-0.0004523582649417241,0.0,-0.0196132999999988,9.80665
120,163.254,0.9841269841269841,-0.0005568436037864367,0.0007431212697433017,-0.7068396789832913,-0.7073731729945739,0.0005658027362096984,-0.0005360031509734832,-0.00043075237320216536,0.0,-0.0196132999999988,9.80665
121,163.378,0.9936102236421726,-0.0005575947467918712,0.0007439250791725251,-0.7068348233930087,-0.7073780234543136,0.0006001170122146264,-0.0004669198807165713,-0.00038343984972262805,0.0,-0.0196132999999988,9.80665
122,163.444,0.9968051118210862,-0.0005582131469075063,0.0007442065199951273,-0.7068322075852341,-0.7073806364795149,0.000615862662675773,-0.00043430631336537014,-0.0003626265941536498,0.0,-0.019417948406373484,9.80665
123,163.558,0.9487179487179487,-0.0005638877526733586,0.0007416077404749374,-0.7068270280951087,-0.7073858100718003,0.0005899901458700435,-0.00046556385093001195,-0.00041874773536931104,0.0,-0.014963932071712045,9.80665
124,163.69,0.9903846153846154,-0.0005704583488232929,0.0007385986273462964,-0.7068210307907529,-0.7073918005470783,0.0005600324948318303,-0.0005017567891627551,-0.00048373010940849776,0.0,-0.0098066499999988,9.80665
125,163.72,1.0,-0.0005727636929536229,0.0007367093843664506,-0.7068195081773045,-0.7073933219661851,0.0005497505042578526,-0.0005015005912990815,-0.0004906407262883096,0.0,-0.010988174096384409,9.80665
126,163.875,0.9935897435897436,-0.0005846746376269943,0.0007269482956372475,-0.7068116413411546,-0.70740118263157,0.0004966268862923026,-0.000500176902336768,-0.0005263455801673366,0.0,-0.017092715261043206,9.80665
127,163.953,0.9903846153846154,-0.0005913077686391162,0.0007212989498208835,-0.7068076013163086,-0.7074052195793326,0.00048366025607415105,-0.000501332304849044,-0.0005375609920441108,0.0,-0.01907063952569014,9.80665
128,164.044,0.9839743589743589,-0.0006024556816106642,0.0007107757046683818,-0.7068024547279607,-0.707410362728175,0.0005419540956152659,-0.0005123950315551046,-0.0005146339485097807,0.0,-0.015543346442686071,9.80665
129,164.159,1.0,-0.0006165437034977815,0.0006974770981569821,-0.7067959507976308,-0.7074168623118771,0.0006156221345957767,-0.0005263754004693535,-0.0004856602121751951,0.0,-0.011085778260868892,9.80665
130,164.28,0.9968051118210862,-0.0006329013123211996,0.0006823886835265837,-0.7067902345491803,-0.7074225735516351,0.0006210089860076788,-0.0005208560579497867,-0.0004909499194887785,0.0,-0.0098066499999988,9.80665
131,164.359,0.9904153354632588,-0.0006439567869359261,0.0006722692388880515,-0.7067867783860574,-0.7074260263380472,0.0006068673820012353,-0.0005122997290417089,-0.0005031625204342566,0.0,-0.0098066499999988,9.80665
132,164.463,0.9968152866242038,-0.0006582162595923531,0.0006593967678443424,-0.7067823894282694,-0.7074304105515744,0.0005949961859732868,-0.0005070633240975442,-0.0005157367051579057,0.0,-0.0098066499999988,9.80665
133,164.56,0.9904458598726115,-0.0006706001498644776,0.0006487876669936264,-0.7067787962016371,-0.7074339984237797,0.0006048959074541936,-0.0005209190947935,-0.0005165733054745942,0.0,-0.0098066499999988,9.80665
134,164.644,0.9872611464968153,-0.0006813243435021931,0.0006396004044012542,-0.7067756845414604,-0.7074371054471329,0.0006134688621386898,-0.0005329179065302034,-0.0005172977840993553,0.0,-0.0098066499999988,9.80665
135,164.759,0.9968051118210862,-0.0006960182437993393,0.0006266445644757855,-0.7067720451302288,-0.7074407386528975,0.0005864808126352758,-0.0005376552673988047,-0.0005037238472141338,0.0,-0.012552511999998532,9.80665
136,164.874,1.0,-0.0007107198381522791,0.000613445698869573,-0.7067688046759628,-0.7074439729933455,0.0005345982278231521,-0.0005348778958432377,-0.00048078619292937167,0.0,-0.01706357099999889,9.80665
137,164.96,0.9487179487179487,-0.0007206216816124331,0.0006046269303591431,-0.7067662642440329,-0.7074465087895249,0.0005142874519806419,-0.0005357121725101042,-0.00046802982478402565,0.0,-0.0196132999999988,9.80665
138,165.056,0.9903846153846154,-0.0007279005234500121,0.0005984164612194414,-0.7067630236916992,-0.707449743947051,0.0005554950560908845,-0.0005467023227829509,-0.00046898247837089016,0.0,-0.0196132999999988,9.80665
139,165.182,0.9936102236421726,-0.0007374540033618325,0.0005902652204735847,-0.7067587704667612,-0.707453990091304,0.0006095800364855655,-0.0005611268950160588,-0.0004702328362036495,0.0,-0.0196132999999988,9.80665
140,165.284,1.0,-0.0007441056492978444,0.0005857021750232951,-0.7067556430691888,-0.7074571111620067,0.0006142883561551571,-0.0005439240636769685,-0.0004951696633361276,0.0,-0.0196132999999988,9.80665
141,165.335,0.9903846153846154,-0.0007473916045573518,0.0005834956472774893,-0.7067540910010603,-0.7074586600447835,0.0006152029195800427,-0.000534258652944115,-0.0005085195107385554,0.0,-0.0196132999999988,9.80665
142,165.452,0.9935897435897436,-0.0007548939810504796,0.0005785302606542052,-0.706750634837722,-0.7074621089327251,0.0006134553097654119,-0.0005152583650778984,-0.0005343838296830648,0.0,-0.0196132999999988,9.80665
143,165.532,0.9871794871794872,-0.0007598269347953849,0.000575663795227505,-0.7067488430736318,-0.7074638958981838,0.0005912239134777288,-0.0005196249454747896,-0.0005260213725268822,0.0,-0.0196132999999988,9.80665
144,165.648,1.0,-0.0007669797177254956,0.0005715074203587907,-0.706746245015701,-0.7074664869980991,0.0005589883888605973,-0.0005259564870502803,-0.0005138958096504207,0.0,-0.0196132999999988,9.80665
145,165.766,0.9968051118210862,1.3179473557280727e-06,0.0004329061306140048,-0.7067475292384396,-0.7074647448951575,-0.008072566715301743,0.014704891797620443,-0.00025532759889029745,0.0,-0.0196132999999988,9.80665
146,165.87,0.9904153354632588,0.0010424333188240771,0.0002476885783254745,-0.7067505040461126,-0.7074611549735358,-0.01971538226609248,0.0352794497241289,8.811882906596788e-05,0.0,-0.0196132999999988,9.80665
147,165.96,0.6869009584664537,0.001981064892100453,2.1017808951926772e-05,-0.7067524200389853,-0.7074576268696219,-0.024652002414266988,0.04462933330796376,0.00032935764851313963,0.0,-0.017985318577072813,9.914910764624576
148,166.069,0.5096153846153846,0.003267740169503089,-0.0005176811978502085,-0.7067521206647625,-0.7074516768762837,-0.010181265345706233,0.02230746066197997,0.0003987819491517388,0.0,-0.00953531976284549,10.47683568577069
149,166.189,0.47435897435897434,0.00468426341068061,-0.0011107443246049817,-0.706751791078462,-0.7074451264249024,0.005749821335281548,-0.002267078030851563,0.00047521237187314895,0.0,-0.000232568774703297,11.095468626482141
150,166.274,0.5246913580246914,0.00377554443920176,-0.0009172632793301307,-0.706753009152891,-0.7074483775969694,0.009496979839602035,-0.010829496937370156,0.00019399320630372443,0.0,1.3794360254998336e-15,11.263949952429147
151,166.36,0.42857142857142855,0.0027853571646194964,-0.0006987943084012279,-0.7067542952871767,-0.7074519591124357,0.01300922124213058,-0.019165262397991073,-0.0001029479357429562,0.0,1.3990891173208148e-15,11.424429625708532
152,166.454,0.38412698412698415,0.0016998598179103536,-0.00045140590833139463,-0.7067547392302063,-0.7074560934154555,0.015882913342331644,-0.026172958640937632,-0.0006802527658807509,0.0,1.4155635766319327e-15,11.558953794820704
153,166.529,0.46984126984126984,0.0008203262641311461,-0.00021789697213227472,-0.7067510517006687,-0.7074603149467262,0.014119567401499347,-0.022925075240047256,-0.0022029193455401935,0.0,1.4076687654051547e-15,11.494487768924301
154,166.68,0.4591194968553459,-0.0009504679574780491,0.00025223435274872384,-0.7067436274745331,-0.7074688142963513,0.010569364240622874,-0.016386003326253187,-0.005268554725921882,0.0,1.3917738788019047e-15,11.364696170119515
155,166.761,0.38023952095808383,-0.001515838851383617,0.0003200317557436563,-0.7067349287794626,-0.7074763834899488,0.010112964222768705,-0.013339247073918366,-0.004155096355086974,0.0,1.3814752287044036e-15,11.280601310240966
156,166.87,0.5321637426900585,-0.002203766641817385,0.00037631701941065335,-0.7067223292630297,-0.7074871396755965,0.009773241580430251,-0.00932665750474059,-0.0021340205328514656,0.0,1.3672806521203852e-15,11.164693796385531
157,166.977,0.4064327485380117,-0.0027943797235654134,0.00039123797549986194,-0.7067249328942024,-0.7074826986981145,0.009394622344775935,-0.006372516364437896,-0.0008936345591618075,0.0,1.3522950379339303e-15,11.042326970318712
158,167.055,0.4032258064516129,-0.0031128164818724604,0.0003487296895546165,-0.7067466486522112,-0.7074596067179822,0.009058882730949873,-0.005522600644123261,-0.0009737090465976447,0.0,1.3399791324201542e-15,10.941759969920303
159,167.16,0.46540880503144655,-0.0035414813488241965,0.0002915069969360247,-0.7067758814033769,-0.707428521360112,0.008606925558491772,-0.004378483328315254,-0.0010815016258381802,0.0,1.3234000288439194e-15,10.80638131553785
160,167.24,0.5,-0.003805030077661599,0.00025230723615502214,-0.7067866928047278,-0.7074163888403099,0.007719752471893854,-0.003982799174264058,-0.0011214753612875956,0.0,1.3112171389374777e-15,10.706900469999987
161,167.332,0.6163265306122448,-0.004064604494381945,0.00021026246329462935,-0.706791217708315,-0.7074104070205829,0.006324954334646526,-0.003856219148263341,-0.0011383589357137668,0.0,1.297516493103995e-15,10.595026206800005
162,167.474,0.5763747454175153,-0.004412601941282454,0.00014078669822564213,-0.7067992165584532,-0.7074004255654557,0.0045493442329567185,-0.0033434457772124216,-0.0009101747206027556,0.0,1.2752015962027977e-15,10.412811245582342
163,167.547,0.5802469135802469,-0.004505525902906587,9.759032707092359e-05,-0.706804985720105,-0.7073940717336441,0.004252538309398898,-0.002561531124082959,-0.00037769540811487636,0.0,1.2618221346179971e-15,10.303559650803212
164,167.669,0.6111111111111112,-0.0046608234826071935,2.5399131442488924e-05,-0.7068146273327284,-0.7073834530010275,0.0037565064919460964,-0.0012547696489898681,0.0005122015250840562,0.0,1.2394619385447688e-15,10.120974793775074
165,167.73,0.6133603238866396,-0.004676721438453769,-1.0761975710887734e-05,-0.7068153990392196,-0.7073825813179436,0.0031060546059161866,-0.0006298646098003111,0.0004887083654757721,0.0,1.2283118984766517e-15,10.029927807200005
166,167.858,0.6267748478701826,-0.00464687351251753,-8.670807497090341e-05,-0.7068128737373905,-0.7073852945831298,0.0013292422909288054,0.0006522640818731112,-4.00811845902814e-05,0.0,1.20494586014072e-15,9.839129624799984
167,167.95,0.6149068322981367,-0.004615625991426583,-0.00014323848653685997,-0.7069150248740056,-0.707283076022504,0.00015058780368419633,0.0015112680047750285,-0.000389143771026278,0.0,1.1884157331024963e-15,9.704150894200005
168,168.051,0.6583850931677019,-0.004502144407208172,-0.00022101556230297867,-0.7078676309737372,-0.7063287587112392,-0.0003476676382124166,0.0019488446302711737,-0.0005217103962786429,0.0,1.1724044243496898e-15,9.573408636400007
169,168.2,0.6252587991718427,-0.004391700987358901,-0.0003573908183566082,-0.709167846676025,-0.7050258769830039,-0.00025817890655266233,0.002307074170455851,-0.0006984497744690247,0.0,1.1488959923276336e-15,9.381447721314746
170,168.244,0.6291666666666667,-0.0045701434910170435,-0.00047781317105734705,-0.7091623870391179,-0.7050300248801435,0.002822914672830357,0.001348484437393114,-0.0006808847412967892,0.0,1.1423696150468277e-15,9.3281558065737
171,168.355,0.6479166666666667,-0.00502030526160902,-0.0007816059244613794,-0.7091486138641935,-0.705040488893382,0.010595673475362125,-0.001069776025559778,-0.0006365729530668468,0.0,1.1259053450884367e-15,9.193714839840645
172,168.456,0.6468172484599589,-0.005317542291250644,-0.0010235283878051763,-0.7091388544235806,-0.7050480317215932,0.014962401464582368,-0.0021773965135220836,-0.0005331533276476349,0.0,1.1102230920675628e-15,9.065659526000013
173,168.557,0.6673553719008265,-0.005017815680202859,-0.001082161241731565,-0.7091438260553458,-0.7050450638687912,0.00495466113090612,0.0025203696936364397,-9.451553563125982e-05,0.0,1.0908154450944638e-15,8.907184062000015
174,168.643,0.6742738589211619,-0.004762602922280942,-0.0011320862460649334,-0.7091480593259576,-0.7050425367862072,-0.003566781133413608,0.006520447850227493,0.00027897802984808856,0.0,1.0742901219292482e-15,8.772244557999995
175,168.758,0.6161825726141079,-0.004133464051196979,-0.001113330634652515,-0.7091447970851745,-0.705049422112669,-0.008686169151620782,0.008883655134842851,-0.0006421929888988647,0.0,1.06099516220709e-15,8.663682973293167
176,168.845,0.7139830508474576,-0.003506984559694482,-0.0010544262524181253,-0.7091376633763731,-0.7050599982503696,-0.009277667738048456,0.009110262063911651,-0.0020819017357365677,0.0,1.0555401618277078e-15,8.619139514859436
177,168.946,0.6292372881355932,-0.002793165684471662,-0.0009822481504502076,-0.7091298583430545,-0.7050716470956006,-0.009854403652250722,0.00917422472499298,-0.003651617518626165,0.0,1.0499488973716516e-15,8.573483375800002
178,169.06,0.7019438444924406,-0.002191685596592357,-0.0008432611959444745,-0.7091282729622062,-0.7050752585166216,-0.008838915877044117,0.006228513428941128,-0.003882360053248723,0.0,1.054877671083137e-15,8.613729867400004
179,169.156,0.6425438596491229,-0.0016851760489045215,-0.0007262195500449099,-0.7091269379046498,-0.7050782997132709,-0.007983768276870135,0.0037479144427922002,-0.004076669556088772,0.0,1.0590282173664929e-15,8.647621649800005
180,169.245,0.6765375854214123,-0.0013066946235722769,-0.0006272454316147071,-0.7091247122175026,-0.7050814728441931,-0.006857629761927517,0.002695266726530226,-0.003649322419530732,0.0,1.0676607771711122e-15,8.71811185000001
181,169.351,0.7175398633257403,-0.0009198537406911203,-0.0005160570105229871,-0.7091213679911119,-0.705085500313387,-0.005282429013667362,0.0023168054342802076,-0.0027139840448009117,0.0,1.0813003451905716e-15,8.829487375000001
182,169.457,0.7432432432432432,-0.0005559379614870658,-0.0004085506936401965,-0.7091212570868676,-0.7050861973785925,-0.0037867279113626513,0.0018994109256260877,-0.0016990524985974558,0.0,1.0947332061096377e-15,8.939175008433727
183,169.551,0.7415730337078652,-0.00034757537020493385,-0.0003315820032014267,-0.7091372872197538,-0.7050702027844459,-0.002856912196101559,0.0013350616615962054,-0.00040199160463676663,0.0,1.1056142678743475e-15,9.028025620481916
184,169.651,0.755056179775281,-0.00012591303905366532,-0.00024970041762824367,-0.7091543405526115,-0.705053187258758,-0.0018677465415681952,0.0007346901041174331,0.000977860410215431,0.0,1.1171898654963824e-15,9.122547548192783
185,169.741,0.7702702702702703,1.2577956447761755e-05,-0.00017265299128158777,-0.709153679998973,-0.7050539052068279,-0.0013704258818179017,0.000551779130008088,0.001063897600164494,0.0,1.1266042990423815e-15,9.199422232000012
186,169.858,0.7727272727272727,0.0001319700016092863,-6.915706710797302e-05,-0.7091369068939928,-0.7050707761550891,-0.0011145261097699265,0.0006693158005364303,2.6715321466270342e-05,0.0,1.1378453618931362e-15,9.291212476000005
187,169.959,0.7681818181818182,0.00021418442998018126,1.8447069605174405e-05,-0.709123012377583,-0.7050847496598642,-0.0008897498844889794,0.0004731161824892405,-0.000930458198534391,0.0,1.1469102702689376e-15,9.365233070200002
188,170.026,0.7881548974943052,0.00020902878800178616,7.158347099271312e-05,-0.7091154695636493,-0.7050923291984093,-0.0007295575847383284,-0.000509229869581946,-0.0017424257127569669,0.0,1.1510944436633858e-15,9.399399438800007
189,170.148,0.7790432801822323,0.0001996409026082927,0.00016833930635507517,-0.7091017348875314,-0.7051061307462076,-0.00043786414340138814,-0.002297979397233553,-0.003220933723729084,0.0,1.1587133862622301e-15,9.4616128264
190,170.254,0.7709750566893424,0.00010007987968652084,0.00023750077571230613,-0.7091030903617748,-0.705104751009653,0.0008843695202375348,-0.0031760393884032677,-0.0033816798627376936,0.0,1.1650256754015001e-15,9.513156578799997
191,170.36,0.7765237020316027,-5.946523848111764e-05,0.0002968807888647856,-0.7091131666644122,-0.7050945963933718,0.0029079999681565225,-0.003610409125685757,-0.0028048934135585153,0.0,1.17113620187422e-15,9.563052814000008
192,170.438,0.781038374717833,-0.00017686636317044822,0.00034057551552413355,-0.7091205813022019,-0.7050871241285612,0.004397086524171572,-0.003930039687082132,-0.002380465649068407,0.0,1.1756326270145207e-15,9.599768911599995
193,170.558,0.7995495495495496,-0.0003853983014944104,0.00034931788401349243,-0.7091135499158612,-0.7050940752698139,0.005027696456893708,-0.003895233581918647,-0.002230494968645075,0.0,1.1791355116932364e-15,9.628372135657369
194,170.634,0.7837837837837838,-0.0005177681797464231,0.00035422696288709766,-0.7091088987768811,-0.7050986756772017,0.005409260399164593,-0.0038675375327289875,-0.002140912920258868,0.0,1.1813173504322734e-15,9.646188200996013
195,170.75,0.77728285077951,-0.000744303481551429,0.0003476978995956044,-0.7091080830995289,-0.7050992831258671,0.005271336722026877,-0.0038443986479806376,-0.0007751997350808903,0.0,1.1843765633609265e-15,9.671168570281125
196,170.89,0.7797752808988764,-0.0010462713635214858,0.0003234687107390328,-0.7091144250446746,-0.7050925373637896,0.004265005726472051,-0.003838782398830576,0.002306049940247102,0.0,1.1877527793340189e-15,9.69873746586345
197,170.947,0.7878103837471784,-0.0011687144808312125,0.00031046050897654947,-0.7091160023709615,-0.7050907918949001,0.003926382664591089,-0.0037679792046546442,0.0032162021882830693,0.0,1.189059452086257e-15,9.7094072586
198,171.032,0.781038374717833,-0.0013459691722725222,0.00025757933720812413,-0.7091076522851909,-0.7050988514959666,0.004178721740841904,-0.0029325823150573886,0.000905488546937352,0.0,1.1902844397046087e-15,9.719410041600002
199,171.16,0.7927107061503417,-0.0016128938840899694,0.00017794651383921747,-0.7090950780383835,-0.7051109883069844,0.0045587147027254075,-0.0016745728813111899,-0.002574174348264901,0.0,1.1921291269416556e-15,9.734473056
200,171.28,0.7881548974943052,-0.00179621757042075,0.00013087716047995043,-0.7091299217518475,-0.7050755122958069,0.003440757943317248,-0.0017155083920806775,-0.0016908928006886793,0.0,1.193426172655204e-15,9.745064238000001
201,171.388,0.773972602739726,-0.0019411334188190188,9.67906680213383e-05,-0.7091752707149191,-0.7050295276042952,0.001992336811497707,-0.002118446158245234,0.0003477002456785663,0.0,1.194463809226043e-15,9.7535371836
202,171.459,0.817351598173516,-0.0020333840470348158,7.509373376041031e-05,-0.7091967590072245,-0.7050076667951344,0.0015750146722421855,-0.0023150845142081385,0.0011423122175037326,0.0,1.1950546856066598e-15,9.758362055400001
203,171.546,0.8545034642032333,-0.002136301982981157,5.089436610303907e-05,-0.7091951728890787,-0.7050089487549412,0.0028574212901293426,-0.0023271330222487444,0.0002863566353917661,0.0,1.195472622558803e-15,9.7617747696
204,171.675,0.8683602771362586,-0.002288904439729222,1.5012545093823646e-05,-0.7091928210587248,-0.7050108495918963,0.00475892075803151,-0.0023449980514124056,-0.0009828188829125314,0.0,1.1960923221774987e-15,9.766835001
205,171.752,0.8083140877598153,-0.0023316737345209044,-3.151305759620204e-05,-0.7091873588413664,-0.7050162018453601,0.004713376546278545,-0.001487490326165989,-0.0007345668359193195,0.0,1.1964622203995108e-15,9.769855449200001
206,171.892,0.8461538461538461,-0.00238818139953304,-0.00012714953677379277,-0.7091756423120156,-0.7050277884845138,0.0041112663503736335,0.00045350818336007456,0.0001592441864777239,0.0,1.1971347626213508e-15,9.7753471732
207,171.96,0.8642533936651584,-0.0024102213426390323,-0.0001693760102819175,-0.709170159990115,-0.7050332227415494,0.0037475637253373056,0.0010545509890652863,0.00048451315029525216,0.0,1.1974614259862446e-15,9.778014582
208,172.067,0.9172259507829977,-0.0024244838355766663,-0.00021986301603029693,-0.7091623210303561,-0.7050410428100148,0.002906196812167689,0.0007097841621143436,0.0005851973170647487,0.0,1.1979754403986509e-15,9.7822118282
209,172.16,0.8507795100222717,-0.0024368802079430202,-0.00026374424532561264,-0.7091555077288835,-0.7050478396919518,0.002174915289506325,0.00041012701345608015,0.0006727078545372922,0.0,1.198422200588873e-15,9.785859902
210,172.268,0.9175946547884187,-0.002426724222771256,-0.0002730885529683154,-0.7091464035805088,-0.7050570289039237,0.0017475462186017207,-3.8398316800815975e-05,0.00048531778156757355,0.0,1.1989380450481417e-15,9.790072091666666
211,172.375,0.9026548672566371,-0.002407306720187824,-0.00026648894713905593,-0.7091369295409792,-0.7050666268991422,0.0014848861776824624,-0.0005210804389669375,0.0001895323609157287,0.0,1.1994479799810845e-15,9.794236026388889
212,172.506,0.8580931263858093,-0.002396107935747578,-0.00026425815709279837,-0.7091343766884293,-0.705069233872763,0.0007647376943139696,-0.0007884974737892012,7.90318891015452e-05,0.0,1.1997672850325534e-15,9.79684335
213,172.56,0.9464285714285714,-0.0023969177996277075,-0.0002658626940383283,-0.7091372281330824,-0.7050663626033238,0.0002958834436046179,-0.0007591154219792978,0.0001420692614403609,0.0,1.1997672850325534e-15,9.79684335
214,172.68,0.9308035714285714,-0.0023987174971391062,-0.00026942833169506144,-0.7091435646767562,-0.70505998200457,-0.0007460148913050529,-0.0006938219735128457,0.00028215231108217356,0.0,1.1997672850325534e-15,9.79684335
215,172.76,0.9161147902869757,-0.0023570729971803864,-0.0002768723343109972,-0.7091365497160924,-0.7050671716103953,-0.000614005227107576,-0.00020247084088628265,-0.00029644145397463646,0.0,1.2001035561434735e-15,9.799589211999999
216,172.879,0.8623024830699775,-0.002286022390103108,-0.00028902200675671904,-0.7091237266059435,-0.7050802978584553,-0.00024198653385976675,0.0006235761793795481,-0.0012998959532705473,0.0,1.2006752170320373e-15,9.804257177399998
217,172.96,0.8577878103837472,-0.0022312380647692993,-0.0002965598077159366,-0.7091168464024274,-0.7050873902410554,1.6039677429978717e-05,0.0009611822944134033,-0.001777197374030929,0.0,1.2008721758255762e-15,9.805865467999999
218,173.052,0.8306997742663657,-0.002146766305594226,-0.00030258496869749326,-0.7091154341444702,-0.7050890637286997,0.0003257464230991724,0.0005663654329255446,-0.0016066550649702646,0.0,1.2004302195083671e-15,9.8022566208
219,173.16,0.8445945945945946,-0.0020476038056930334,-0.00030965798376280035,-0.7091137762764335,-0.7050910282576734,0.0006893152114935181,0.00010288476943970198,-0.001406453223899009,0.0,1.1999114012229477e-15,9.798020147999999
220,173.241,0.8292682926829268,-0.001986266633958687,-0.000306824568030542,-0.7091135346590809,-0.7050914486937941,0.0009433710325975456,-3.988992888473614e-06,-0.0009269242479930221,0.0,1.200257280079894e-15,9.8008444632
221,173.36,0.8635346756152126,-0.00190741855725527,-0.0002956289030388733,-0.7091140454293561,-0.7050911564055925,0.0013005215115845681,4.704302875325767e-05,6.221624324111467e-05,0.0,1.2014006018570222e-15,9.810180394000001
222,173.477,0.8008948545861297,-0.0018362637664872605,-0.0002774252262529748,-0.7091107345414338,-0.705094684861387,0.001465478590689587,-2.7065956732276152e-05,0.00026848840923040943,0.0,1.2019914782376386e-15,9.815005265799998
223,173.563,0.8159090909090909,-0.0017940826715519104,-0.0002526079986617456,-0.7091022408492944,-0.7051033428580773,0.0012908193701878384,-0.0002790604301262368,-0.0007976703990715303,0.0,1.2015783451585084e-15,9.811631778199999
224,173.65,0.8227272727272728,-0.0017514110987684587,-0.0002275021986566553,-0.709093648393293,-0.7051121015291477,0.001114129228517397,-0.0005339850718155739,-0.0018762264028192553,0.0,1.2011604082063649e-15,9.808219064
225,173.76,0.8411633109619687,-0.0016885473509878459,-0.00020196775422761312,-0.7090837771911385,-0.705122187599042,0.0006880320585333147,-0.0005344726215116796,-0.002388312621042131,0.0,1.2009682532858392e-15,9.80665
226,173.88,0.8299776286353467,-0.0016144136929469308,-0.00017798224358478305,-0.7090736275094166,-0.7051325746185095,9.684293298051878e-05,-0.0003343825950287324,-0.0024160813074558967,0.0,1.2009682532858392e-15,9.80665
227,173.97,0.804932735426009,-0.0015629528975731684,-0.00016506434296241325,-0.7090737107275141,-0.7051326121944206,-0.00016140730571876773,-0.0002058902846548288,-0.0016290482935910383,0.0,1.2009682532858392e-15,9.80665
228,174.059,0.8475336322869955,-0.0015202507973916988,-0.0001623197452362476,-0.7090890129690907,-0.7051173162574131,-5.061914429000983e-05,-0.00012149663649529135,0.0007470065323883341,0.0,1.2009682532858392e-15,9.80665
229,174.2,0.8629213483146068,-0.001453140564893245,-0.0001576307291341606,-0.7091122134155774,-0.7050941297366617,9.753102778951158e-05,-4.409778161914899e-05,0.004051174214564377,0.0,1.2009682532858392e-15,9.80665
230,174.295,0.851685393258427,-0.0014122354795681135,-0.00015175754300034784,-0.7091195444590659,-0.705086839429296,-2.0573250773127193e-05,-0.00044027167006923203,0.002613442500522733,0.0,1.2009682532858392e-15,9.80665
231,174.357,0.8871681415929203,-0.0013855395291453908,-0.00014792451626038507,-0.709124328929553,-0.7050820815444889,-9.765183257191758e-05,-0.0006988272604261808,0.0016751333818848385,0.0,1.2009682532858392e-15,9.80665
232,174.446,0.8215102974828375,-0.0013491755128709636,-0.00013871552195863658,-0.7091311482114906,-0.7050752969815275,-0.00016388999950140576,-0.001072556994855405,0.0004001130303367966,0.0,1.2009682532858392e-15,9.80665
233,174.575,0.8878718535469108,-0.0013357188973149514,-5.1045309268830756e-05,-0.7091400549088845,-0.7050663715462169,0.0006304850440937465,-0.0016659325594082057,-6.169331027166007e-06,0.0,1.2009682532858392e-15,9.80665
234,174.657,0.8456221198156681,-0.0013271650796746928,4.683042983622991e-06,-0.7091457165304837,-0.7050606980136939,0.001135436622193163,-0.0020431170267984867,-0.00026442633592527686,0.0,1.2009682532858392e-15,9.80665
235,174.76,0.8857808857808858,-0.0009140116191513792,-2.8372060447040967e-05,-0.7091568325550616,-0.705049863956919,-0.004877786841242899,0.00753427851945067,4.6956101432401285e-05,0.0,1.2009682532858392e-15,9.80665
236,174.846,0.8438228438228438,-0.00041065230396878727,-9.653611150723212e-05,-0.7091676901375048,-0.705039358681122,-0.01251512211002462,0.019487282510847675,0.0005572004094720215,0.0,1.2009682532858392e-15,9.80665
237,174.96,0.7471264367816092,0.0010646133261025782,-0.00045131388547865834,-0.7091754930762781,-0.7050233643497548,-0.024174074686710473,0.03967857337187544,0.001122791573242653,0.0,1.2013495130487872e-15,9.809763222222223
238,175.08,0.7172413793103448,0.006615106481377887,-0.002132951171190841,-0.7091511051682448,-0.7049962934260815,-0.044041079779467564,0.08243685050143473,0.0011700851868631048,0.0,1.2036370716264745e-15,9.828442555555556
239,175.167,0.7188208616780045,0.010639214018951827,-0.0033521382033319743,-0.7091334239349205,-0.7049766670064185,-0.0584446584717141,0.11343660142036016,0.0012043730567379268,0.0,1.2052955515952977e-15,9.841985072222222
240,175.277,0.6666666666666666,0.01788235851462265,-0.005716809418073945,-0.7091043951013719,-0.704797222839284,-0.061707062893603414,0.12243678319047252,0.002318663995742658,0.0,1.2082319407936638e-15,9.86596250963855
241,175.36,0.612691466083151,0.02382593164008512,-0.007683743528955114,-0.7090810105648058,-0.7046275079630058,-0.060851132744047916,0.1225268209734595,0.0033971153196868603,0.0,1.2106338773002364e-15,9.885575809638556
242,175.457,0.5620915032679739,0.030336520127121572,-0.00983634961134189,-0.7090503517304081,-0.7044305171092502,-0.058013659477235,0.11820800906419998,0.004205659911036612,0.0,1.2132085217233283e-15,9.9065993768
243,175.569,0.5340425531914894,0.03530815806486519,-0.011467825430591013,-0.7089954872659257,-0.7042109586612713,-0.043998483896257254,0.08736124831438452,0.0024982202351095336,0.0,1.2148226230557444e-15,9.919779514399998
244,175.68,0.615546218487395,0.04023540637816572,-0.013084734501454328,-0.7089411126627333,-0.7039933605565779,-0.030108443811535296,0.05678990507125735,0.000806025556288587,0.0,1.2164223127691214e-15,9.9328419722
245,175.8,0.7100840336134454,0.04305651458139257,-0.013904116907581376,-0.7089289653243861,-0.703821641629708,-0.022935108214616303,0.04424010011553687,0.001045129146892605,0.0,1.2176280848954205e-15,9.9426878488
246,175.888,0.6750524109014675,0.04493989408067715,-0.01443627323144725,-0.708923508626718,-0.7037004154529726,-0.01825508645176873,0.036554057091474294,0.0013735536714084503,0.0,1.2184735665457337e-15,9.9495917304
247,175.949,0.6561844863731656,0.04619135071321475,-0.014791479184114607,-0.7089195187834769,-0.7036193812103554,-0.01523547583818411,0.031472195446490686,0.001536544051021291,0.0,1.2190596390533371e-15,9.9543773756
248,176.067,0.6715176715176715,0.047919291457167765,-0.015303344188432991,-0.7089091432934209,-0.7035010416279209,-0.012271298982202887,0.02479387407004806,0.0010230854225810378,0.0,1.2201933530844388e-15,9.9636348532
249,176.168,0.6611226611226612,0.04939829158546658,-0.015741465929417386,-0.708900262577356,-0.7033997509683796,-0.009734164554625653,0.01907768373936393,0.0005835996473906369,0.0,1.2211637354330937e-15,9.9715586264
250,176.286,0.707983193277311,0.049486008401101025,-0.01584916026280003,-0.7089105186884203,-0.7033816275446486,-0.0009067707881332439,0.0032207638025285555,1.4696495491085251e-05,-0.0037265269999999556,1.221841081527947e-15,9.977089577
251,176.36,0.680672268907563,0.049291984144893344,-0.015855332669735576,-0.7089200829565636,-0.7033854776992682,0.005519257165492548,-0.00811698123812846,-0.00035049134900333164,-0.006629295400000437,1.2221965681309198e-15,9.9799923454
252,176.473,0.6577868852459017,0.04873850297089644,-0.01576634868102911,-0.7089463614221269,-0.7033990189213253,0.01177251023799155,-0.019180794671177413,-0.0006177990837022197,-0.00980665,1.222739405781405e-15,9.9844249512
253,176.559,0.639344262295082,0.0478217879275802,-0.015509046700099786,-0.7089888493710108,-0.70342408486731,0.00967453381419194,-0.015562288224697324,-0.0002619071491062829,-0.00980665,1.2231525388605353e-15,9.987798438799999
254,176.698,0.6378947368421053,0.04642892657831759,-0.01508004582814781,-0.7097377017954974,-0.7027484379731117,0.005112770564853186,-0.010191494353115687,0.01941504624952998,-0.00980665,1.2238539043204542e-15,9.9935255224
255,176.755,0.6080508474576272,0.04654447085045637,-0.014802600363370751,-0.7153044713261071,-0.6969334591476198,-0.005811795607207855,-0.01168320688605288,0.17519360878130358,-0.00980665,1.2244015458439524e-15,9.997997354799999
256,176.877,0.7076271186440678,0.0467917761346833,-0.014208769719461764,-0.7272193113740828,-0.6844873641176157,-0.02919420039653913,-0.01487599511444581,0.5086143917441561,-0.00980665,1.2255736908591595e-15,10.007568645200001
257,176.959,0.5263157894736842,0.04684478930990188,-0.01412779784221594,-0.7383944808589159,-0.6720123394615208,-0.036907426762604,-0.015008157498309742,0.6949065598574562,-0.010504356324110738,1.226444919749812e-15,10.014682768972333
258,177.105,0.351931330472103,0.046222498827742334,-0.015997780747125396,-0.7783397693177394,-0.62378427606716,2.2082490175642788e-05,-0.0024947982885151748,0.7872345664284424,-0.016163529841897093,1.228524066370125e-15,10.031660289525691
259,177.157,0.2458233890214797,0.046000861121767586,-0.01666380205572361,-0.7925668583578754,-0.6066071575979273,0.013175058388432428,0.0019620145807289283,0.8201185139742893,-0.018179125889328848,1.2292645843444834e-15,10.037707077667987
260,177.32,0.2731829573934837,0.04440844059679119,-0.021560782284752597,-0.8206014894038293,-0.5685107329585491,0.033935360753765256,0.011341156311680017,0.5623930210044081,-0.01461071740890698,1.2310167707162297e-15,10.052014765182186
261,177.389,0.3583959899749373,0.04362276236415026,-0.02398294538928705,-0.8304101734504509,-0.5543415039972854,0.04017901420593356,0.014740746860441974,0.408444335586123,-0.011871207894736427,1.2316877570277823e-15,10.057493784210527
262,177.453,0.38902147971360385,0.04297598776478959,-0.026012306182461226,-0.8383657284027365,-0.5427671906630094,0.04321761395037168,0.016626989006996162,0.28389041972160306,-0.010277369200000018,0.0004707192000012502,10.0625643384
263,177.607,0.4306569343065693,0.042274398868871445,-0.028629825080002665,-0.8455973528926763,-0.5312678332134196,0.021827498055994952,0.007954631440341673,0.17436283862591018,-0.016318265599999875,0.00651161560000111,10.0746461312
264,177.716,0.45255474452554745,0.04184964889707525,-0.03009720111898581,-0.8500050719904112,-0.5242394858387748,0.008674958720802923,0.002554700896143774,0.10766755305230459,-0.0196133,0.010787315000001458,10.08319753
265,177.77,0.49029126213592233,0.04175878823900456,-0.030182820189358563,-0.8510055767515522,-0.5226065893774234,0.005466919392346877,0.0011084649264810511,0.09264914084970736,-0.0196133,0.012905551400001538,10.0874340028
266,177.867,0.43719806763285024,0.041595575575433176,-0.030336617408361428,-0.852802779748416,-0.5196734235116632,-0.0002956697717301712,-0.001489403389393947,0.06567162263393744,-0.0196133,0.016710531600000755,10.0950439632
267,177.961,0.4640198511166253,0.04137543954952603,-0.030359973386843753,-0.8543386773637079,-0.5171754687459327,-0.004645598143250084,-0.00536448812386878,0.04337679103491706,-0.0196133,0.019613300000001235,10.101630906374503
268,178.053,0.43672456575682383,0.04093557249715472,-0.0299276936368463,-0.8550969208256722,-0.5159781722947595,-0.004432739255823717,-0.01407323486405351,0.03549218630470191,-0.0196133,0.019613300000001235,10.105225375697211
269,178.125,0.4174757281553398,0.04059132871703797,-0.029589387745543875,-0.855690328752427,-0.5150411576807976,-0.00426615403957696,-0.020888775791156004,0.029321626081053997,-0.0196133,0.019613300000001235,10.10803843864542
270,178.286,0.43552311435523117,0.038639619351349026,-0.028111155709030278,-0.8566537617877051,-0.5136669738460943,-0.004065862587507233,-0.03521936081619113,0.01713083035510855,-0.027017517670682407,0.023315408835342437,10.095847714658635
271,178.388,0.36432160804020103,0.03686940782825465,-0.026848721664261402,-0.8570999944176757,-0.5131219903634928,-0.004016734771879322,-0.04388756556324226,0.010133254225833239,-0.035051881526104556,0.02733259076305351,10.07977898694779
272,178.515,0.3903061224489796,0.03448484853185609,-0.025158719281792457,-0.857502773454766,-0.5126978301820722,-0.0037966774422675794,-0.04857835826277729,0.005514206286519986,-0.03632383160000063,0.029419950000001232,10.054012939600003
273,178.563,0.40561224489795916,0.033534744636729244,-0.024487995983610487,-0.8576136359819188,-0.5126063820807872,-0.003670495735481419,-0.04869947752356526,0.004876550611108738,-0.03444095480000056,0.029419950000001232,10.042715678800004
274,178.72,0.3969849246231156,0.03046927833007676,-0.02230715759318419,-0.8579486986933144,-0.5123423670928072,-0.0034260386684909347,-0.048476475581526825,0.0026588815017604046,-0.02941995,0.030557521400001085,10.005764221600002
275,178.785,0.36883116883116884,0.029277187475694636,-0.021427992408374025,-0.8580370747232302,-0.5122971957136352,-0.003632307168096285,-0.047252712428569904,0.0014995191441849985,-0.02941995,0.033107250400000995,9.990465847600001
276,178.864,0.43636363636363634,0.027828338591137706,-0.020359468568373836,-0.8581444855903586,-0.512242295114334,-0.003883002729155129,-0.0457653695195913,9.044797113162565e-05,-0.02941995,0.03620615180000129,9.9718724392
277,178.976,0.42036553524804177,0.02582218776978792,-0.01892430167749286,-0.8582756554144209,-0.5121863537855434,-0.003998678429052246,-0.04364742249250418,-0.0010576692165341394,-0.02941995,0.03785366900000135,9.948258026000001
278,179.059,0.4528301886792453,0.02441360270129293,-0.017990683796094534,-0.8583384466204097,-0.5121805897483848,-0.0036935392729938216,-0.04206269550323496,-0.0005234307111241194,-0.02941995,0.03459786120000141,9.935234794800001
279,179.13,0.4178272980501393,0.023208668486074335,-0.01719204681321164,-0.8583921595797495,-0.5121756590659959,-0.0034325166214257737,-0.04070708566904081,-6.643150770109475e-05,-0.02941995,0.031812772600001496,9.924094440400001
280,179.28,0.4178272980501393,0.020842471524012102,-0.015595485378823902,-0.858479928572197,-0.5121815170502688,-0.00386257479752762,-0.03739537545535937,-0.00010157030928565502,-0.02941995,0.029419950000001215,9.90400758554217
281,179.401,0.3869209809264305,0.019032948077493988,-0.014357738945501188,-0.8585365147505843,-0.5121952406314683,-0.004752151942980305,-0.034476377788078064,-0.0006831478634681412,-0.02941995,0.02941995000000121,9.889711143975902
282,179.473,0.39509536784741145,0.017971330468401568,-0.013643764582697154,-0.8585633049038305,-0.5122086900009328,-0.004857881683046328,-0.03486851618989709,-0.0009116559420995864,-0.02941995,0.0306990782608713,9.88126581521739
283,179.593,0.3852040816326531,0.01623175672577299,-0.012498196228085696,-0.8585944017508832,-0.5122415120606901,-0.004199723602666543,-0.039715688410600906,-0.001060955803896543,-0.02941995,0.03535045375494126,9.86731168873518
284,179.692,0.39659367396593675,0.014796608388103871,-0.011553102335530882,-0.8586200566497016,-0.5122685902599898,-0.003656743186353014,-0.04371460549268308,-0.001184128189879079,-0.02941995,0.03918783853755043,9.855799534387353
285,179.771,0.42824074074074076,0.012942481354424877,-0.010376556437317302,-0.8586491586204685,-0.5122851697388668,-0.002215042045141323,-0.05077867951964937,-0.00037688886908266155,-0.032504299596773305,0.03922660000000121,9.83717715241936
286,179.864,0.4514038876889849,0.010749075655941657,-0.008985133962200754,-0.8586835481489922,-0.512304611462447,-0.0005026300756482529,-0.059153068314997316,0.0005870722107506581,-0.03618179334677415,0.0392266000000012,9.815112189919354
287,179.959,0.49159663865546216,0.008425900906089339,-0.007524529706192702,-0.8587116767711197,-0.5123300681559535,0.000808488599024709,-0.06624640238285065,0.0013725317213684396,-0.03852052119999998,0.03852052120000117,9.792606877199999
288,180.08,0.5705521472392638,0.005016865919634989,-0.005450278516108685,-0.8587093614470729,-0.5123929866944436,9.132977365510192e-05,-0.0673199435174466,0.001287436435930432,-0.033774102599999606,0.033774102600000806,9.764128365599998
289,180.168,0.5791583166332666,0.002537567747668554,-0.003941732196047801,-0.8587076775750387,-0.5124387456315272,-0.0004302402811590812,-0.06810070070624355,0.0012255489556118903,-0.030322161799999848,0.030322161800001045,9.743416720799999
290,180.276,0.562,-0.000569511005463952,-0.0020555053584770944,-0.8586805489380804,-0.5124910746169257,9.457324864348994e-05,-0.06836831510066986,-4.4227205216993554e-05,-0.03275421100000031,0.02941995000000119,9.721332144999998
291,180.368,0.54,-0.0032311038735755955,-0.0004406913927390223,-0.8586516625247662,-0.51253476840769,0.000810152469668479,-0.06843710172176361,-0.0014010659605263474,-0.03636305819999971,0.029419950000001187,9.703287909000002
292,180.48,0.598,-0.006455952942208666,0.00150456934001326,-0.8586010485490664,-0.5125925027459696,0.0013301809430637862,-0.0686452333988408,-0.001961516850929942,-0.03771490296442729,0.029419950000001183,9.679900017786563
293,180.571,0.596,-0.009052796582044092,0.0030537649030577155,-0.8585364310014316,-0.5126463193647072,0.001218722084088049,-0.06900351903890904,-0.0007571174649027999,-0.03418760988142282,0.02941995000000118,9.658736259288537
294,180.657,0.586,-0.011506956505405187,0.004517839830770143,-0.8584753638685022,-0.5126971790263712,0.0011133873382428406,-0.06934211865479775,0.0003811061306833565,-0.030854124110671153,0.02941995000000118,9.638735344664026
295,180.766,0.598,-0.014683727978598179,0.006406854895352341,-0.8583729067957938,-0.5127617113524181,0.000990829782605898,-0.06932454683431764,8.000460419259542e-05,-0.02941995,0.02941995000000118,9.62151958292683
296,180.891,0.62,-0.018365866817630354,0.008592831220222048,-0.8582406429001516,-0.5128357579560693,0.0008567340908159469,-0.06904112947423285,-0.0012929161870472922,-0.02941995,0.029419950000001176,9.606570421341464
297,180.959,0.604,-0.020357582604140622,0.00977279249188817,-0.8581610172396669,-0.5128788854472023,0.0008891292176457215,-0.06880014874632392,-0.0019642379091468903,-0.02941995,0.028680559722223213,9.599231569444443
298,181.084,0.654,-0.02396493366735972,0.011898177704499942,-0.8579782658357656,-0.5129716566478719,0.0014480807835103146,-0.06794566767556327,-0.002840137724498545,-0.02941995,0.023816150000001174,9.58950275
299,181.176,0.664,-0.026619944049888534,0.013462461220981943,-0.8578437608024944,-0.5130399362515647,0.001859469135986586,-0.06731676960748352,-0.0034847999885972538,-0.02941995,0.020235944444446353,9.58234233888889
300,181.256,0.648,-0.02894567053487398,0.014856321652419383,-0.8576981972953491,-0.5131095712895821,0.0014739152900875119,-0.06771015596389765,-0.0032663836274296324,-0.02941995,0.019613300000001173,9.5785865476
301,181.401,0.6579476861167002,-0.03316876279408508,0.017397924980737122,-0.8574214028816047,-0.5132404345243962,0.000438298903871305,-0.0688492214381695,-0.002517523112706815,-0.02941995,0.019613300000001173,9.5728986906
302,181.476,0.6331967213114754,-0.03541093329359917,0.018726453055652268,-0.8572593191216032,-0.5133151573569517,0.0006766857989131125,-0.07004562598466853,-0.002501817137002889,-0.028086245600000323,0.019613300000001173,9.5699566956
303,181.56,0.6314655172413793,-0.03800024504681709,0.02023318532537712,-0.8570522399662519,-0.5134083482534684,0.001989102678373378,-0.07220572048425662,-0.0029861532077192885,-0.024791211200000197,0.019613300000001173,9.566661661200001
304,181.68,0.6382022471910113,-0.0416992618371284,0.02238565999641262,-0.8567564126014643,-0.513541478105635,0.0038639839347451854,-0.07529156976938246,-0.0036780618801712872,-0.020084019200000018,0.019613300000001173,9.561954469200002
305,181.767,0.6397228637413395,-0.04447103716802236,0.024039740629751342,-0.8564998378686172,-0.5136477523648766,0.0025018838816324735,-0.07691788822412471,-0.002541707135969946,-0.022555294999999555,0.01667130500000162,9.56736774
306,181.856,0.6186868686868687,-0.047321260568233305,0.025747155987017312,-0.8562304740329267,-0.5137580664100527,0.0006630392428490172,-0.07848159867525079,-0.0011111263437198564,-0.0260464623999995,0.013180137600001673,9.5743500748
307,181.96,0.5788113695090439,-0.05074071580150914,0.027793391176648495,-0.8558947315634221,-0.513896195160202,-0.0007615591697394714,-0.0799215829372406,-0.00017993631027639643,-0.028713871199999973,0.009806650000001174,9.5818031288
308,182.075,0.6069364161849711,-0.054991286890451685,0.0303257752481286,-0.8554126367816494,-0.514097656989781,0.0014890080741603003,-0.07946786418557174,-0.003062404501949891,-0.024202812200000732,0.009806650000001174,9.5863141878
309,182.146,0.5945945945945946,-0.05761555251927745,0.03188924715312958,-0.8551149956555113,-0.5142220377715211,0.002878488720394266,-0.0791877421736718,-0.004842015298548557,-0.021417723600000813,0.009806650000001174,9.589099276399999
310,182.24,0.594017094017094,-0.06049085604551216,0.033582123367507974,-0.8547137901399453,-0.5144602905736687,0.003179667212069012,-0.07211432433128331,-0.007155193515121972,-0.0196133,0.011689526800001248,9.605966714400001
311,182.365,0.6069868995633187,-0.06355094742743038,0.0353527551013249,-0.8541711661741722,-0.5148708845067832,0.0016196453217416774,-0.05416658906638596,-0.010176524087786711,-0.0196133,0.01659285180000125,9.6451933144
312,182.495,0.6197183098591549,-0.06623684427793752,0.03693129130451724,-0.853588203330601,-0.5153952118575684,0.00030831900601527664,-0.04107172135640734,-0.013426087495045145,-0.0196133,0.017509039068827083,9.681982465587044
313,182.56,0.6648351648351648,-0.06721905628455946,0.037529569768394125,-0.8532831859486658,-0.5157280627390617,-0.00012135899461701463,-0.03857098397636696,-0.015128871369428282,-0.0196133,0.014928341700405972,9.69746664979757
314,182.649,0.7105263157894737,-0.06856393118593415,0.038348751049702486,-0.8528655467641697,-0.5161838124075677,-0.0007096873339443172,-0.03514689740985007,-0.0174603754435837,-0.0196133,0.011394771457490845,9.718668071255061
315,182.772,0.556390977443609,-0.07024300849595028,0.03934274404148459,-0.8524048875913715,-0.51664349640872,-0.0002923794679700007,-0.03365881126520671,-0.013624492194870667,-0.01640876476377983,0.009806650000001194,9.747424011417321
316,182.858,0.6495726495726496,-0.07135649002703688,0.03999118572977493,-0.8521220655372315,-0.5169075606411768,0.00041398629532414326,-0.033711477630133706,-0.008564220853223312,-0.013088402952755967,0.009806650000001195,9.767346182283465
317,182.951,0.7926829268292683,-0.07257216931669135,0.04071169384432746,-0.8518238758434925,-0.5171762950484622,0.0009510824554996271,-0.03358224287150417,-0.0036069947840966505,-0.00980665,0.009806650000001197,9.788927138554213
318,183.05,0.6103896103896104,-0.07399709139231234,0.04169682361226199,-0.8515930045253151,-0.51727208607681,-0.0010419861351824585,-0.031338794912439724,-0.004154030521620951,-0.00980665,0.0098066500000012,9.81232131566265
319,183.16,0.5714285714285714,-0.07558033814300183,0.042791412243300006,-0.8513364808384514,-0.5173785205527519,-0.0032565067914951873,-0.02884607495792445,-0.004761848007758871,-0.00980665,0.009806650000001204,9.838314845783131
320,183.278,0.7068965517241379,-0.07492784379835789,0.04260276986797448,-0.8512928566239704,-0.5175600414285116,-0.003474403930828053,0.008727831900113059,-0.005136964365839923,-0.006433162400000615,0.0064331624000018225,9.859370550399998
321,183.36,0.6078431372549019,-0.07386653952113759,0.04211928627460414,-0.8513224155816567,-0.5177035968444187,-0.0030679060444235486,0.043862688422205795,-0.005326037988066693,-0.00321658119999975,0.00321658120000096,9.8722368752
322,183.463,0.6,-0.0717045956929073,0.0410089466381232,-0.8514251087170532,-0.5179135063323954,-0.0028076568702234883,0.0842023542821374,-0.005109655122738601,0.0,1.2106768806454018e-15,9.885926958599999
323,183.55,0.75,-0.06714480326728907,0.038411971602376395,-0.8517280931675673,-0.5181884017738272,-0.0034135443922132538,0.10576513582468135,-0.00342990681715303,0.0,1.2110948175975453e-15,9.8893396728
324,183.644,0.6086956521739131,-0.062218130991335066,0.03560604455225991,-0.852055455677318,-0.5184854152392823,-0.004068181484937655,0.12906285381317095,-0.0016150063490495596,0.0,1.2115463816607808e-15,9.8930269732
325,183.764,0.6842105263157895,-0.05510767105845178,0.03154288197297246,-0.8524628829108166,-0.5188499612442543,-0.004089482388351537,0.14298838804442573,-0.0003989797509442467,0.0,1.2110879658583472e-15,9.889283724103585
326,183.849,0.8125,-0.0496833578229564,0.028437609123678077,-0.8527465272009866,-0.5191012773850152,-0.0037199899060763875,0.14538353123512818,-5.748172952020733e-05,0.0,1.2102745610652855e-15,9.88264176992032
327,183.96,0.7692307692307693,-0.04261901317040043,0.024383159616411507,-0.8530963553906027,-0.5194178472735446,-0.0030999018618534505,0.14752743396174967,0.0001851254050249734,0.0,1.2090470557928826e-15,9.87261842871486
328,184.075,0.46153846153846156,-0.03540991773579687,0.02018645066648571,-0.853340906101162,-0.5196792612380755,-0.001669350374737139,0.14411231372729905,-0.0007284447482045021,0.0,1.2068283995819935e-15,9.854501725903617
329,184.149,0.6,-0.030771021543093902,0.017485959690010815,-0.853498269167087,-0.519847475441339,-0.0007488215917228571,0.14191475809817355,-0.0013163072815871434,0.0,1.2054007425419424e-15,9.842844021485945
330,184.25,0.7777777777777778,-0.024842149729434958,0.013996051227800939,-0.8536553297586132,-0.5200122188574778,-0.0005571048334240483,0.13598484569788039,-0.0007240715790541316,0.0,1.2042925334109344e-15,9.8337948072
331,184.36,0.6666666666666666,-0.018710034731367457,0.010353336278204884,-0.8537797812761335,-0.5201392827498206,-0.0012079731305130203,0.1271602770090098,0.0010469881603495156,0.0,1.2037641073794886e-15,9.829479881200001
332,184.448,0.6666666666666666,-0.013861530941994047,0.007476072608782803,-0.8538732676945866,-0.5202386152846602,-0.001671414962038397,0.11994760257005689,0.002321476080920531,0.0,1.203341366554332e-15,9.826027940400001
333,184.544,0.6666666666666666,-0.009424878288955304,0.004887508569566388,-0.8538846831990488,-0.5203124101443359,-0.0013234005775302508,0.10979784899949986,0.0015893702819011677,0.0,1.2028801947450702e-15,9.8222621868
334,184.666,0.4,-0.003786632209052775,0.0015978751030627054,-0.853899190402636,-0.5204061911118406,-0.0008811322972178838,0.09689920383691898,0.0006589858289808713,0.0,1.2022941222374668e-15,9.8174765416
335,184.765,0.3333333333333333,-0.00018892208945866813,-0.0005979126665201094,-0.853875869498822,-0.520457534933672,-0.0002663809106693715,0.08564423896845551,-0.0005806281606919649,0.0,1.202169221539125e-15,9.81645665
336,184.862,0.6666666666666666,0.0029949589954016147,-0.0025840452583372033,-0.8538407733003962,-0.5204992020331,0.00042523904278549325,0.07434164845044648,-0.0019643203191836264,0.0,1.202169221539125e-15,9.81645665
337,184.932,0.5,0.005292605139114798,-0.004017336819442059,-0.853815446146893,-0.5205292710739243,0.0009243462256909739,0.06618513982920435,-0.0029628610521155695,0.0,1.202169221539125e-15,9.81645665
338,185.066,0.8,0.006276926887597454,-0.003481187631149275,-0.8537867227894684,-0.5205724849856973,-0.01435128431795309,0.0025948029624876384,-0.0016860301895291214,0.0,1.2015807953266716e-15,9.811651785341365
339,185.183,1.0,0.006843168097702636,-0.002731374609614367,-0.8537633404740366,-0.5206089844006977,-0.02908291905299047,-0.05704841961761575,-0.0002973655579580105,0.0,1.2010164849425977e-15,9.807043841365463
340,185.279,0.5454545454545454,0.0035473569424621346,0.0015895859431734327,-0.8537255429066674,-0.5206553929905864,-0.03654044403518677,-0.09191438847456584,-0.0011129774264035882,0.0,1.2013830455339619e-15,9.81003703574297
341,185.341,0.5454545454545454,0.0011364164067446262,0.004658495084157496,-0.8536997342684117,-0.5206866013262803,-0.04100906584845721,-0.11337522529514404,-0.001786543374056398,0.0,1.2016820818058644e-15,9.812478852208834
342,185.441,0.6,-0.002752197360540714,0.009608348537356374,-0.8536581074325156,-0.520736937351593,-0.0482165203859884,-0.1479894782315519,-0.0028729400638187255,0.0,1.202164398373449e-15,9.816417265863453
343,185.544,0.6363636363636364,-0.007637305592730803,0.01502728184066486,-0.8534870888641642,-0.5207688551971877,-0.039966367723711524,-0.13030670529388416,-0.00311274355816015,0.0,1.2026611844380613e-15,9.82047383192771
344,185.653,0.5,-0.012816111556478287,0.02076520723082648,-0.8533047785631921,-0.5208024255785821,-0.031073007276320067,-0.1110405113144114,-0.003357394621800966,0.0,1.2031869094967287e-15,9.824766702811246
345,185.741,0.6111111111111112,-0.015931781491250498,0.023989273771118452,-0.8531797215462411,-0.5208091630240923,-0.02366525558754704,-0.09375050365924595,-0.002760107291396541,0.0,1.203610383443068e-15,9.828224630000001
346,185.88,0.6538461538461539,-0.019574178203397213,0.027391128861230237,-0.8530087534996191,-0.5207953575713218,-0.011690922385082257,-0.06435658267140537,-0.0008625389866066114,0.0,1.2042781217918948e-15,9.8336771274
347,185.968,0.5128205128205128,-0.021650032505604096,0.029266055008111864,-0.852903298442057,-0.5207952682114526,-0.006229761256171229,-0.050308914847520515,-8.534443094296636e-05,0.0,1.2045711580456967e-15,9.83606995
348,186.063,0.5714285714285714,-0.02332974663130337,0.030610219549111493,-0.8527962442973905,-0.5208162707698681,-0.005504109298012213,-0.04626903169009221,-0.00028080252279542514,0.0,1.2045711580456967e-15,9.83606995
349,186.156,0.673469387755102,-0.02497409835435668,0.031926085889248244,-0.8526914439241907,-0.520836831169159,-0.004793734223182716,-0.04231419870439843,-0.0004721457074510288,0.0,1.2045711580456967e-15,9.83606995
350,186.246,0.6938775510204082,-0.026484102806790016,0.03303186160553224,-0.8525926381018566,-0.5208537156271463,-0.003746995787545734,-0.04080576275689128,-0.001215768543367394,0.0,1.205131921432445e-15,9.840648930544747
351,186.327,0.5666666666666667,-0.02780652016398717,0.03395162025503666,-0.8525048891139055,-0.5208675559231574,-0.0026432557868617014,-0.040491640205397264,-0.0021363325011172205,0.0,1.2058889520045549e-15,9.846830554280155
352,186.477,0.639344262295082,-0.030163186916171092,0.03550537690234562,-0.8523481741367818,-0.520893871672548,0.00020146697019030524,-0.03686397551113892,-0.003735302005853273,0.0,1.2069730945522684e-15,9.85568325
353,186.545,0.7101449275362319,-0.03108885589128192,0.035978519744061334,-0.8522860746171597,-0.5209068618296679,0.0027295830996182523,-0.030508355159000418,-0.004296564000535073,0.0,1.2069730945522684e-15,9.85568325
354,186.655,0.6883116883116883,-0.03258626158631469,0.03674389787036644,-0.8521856195118885,-0.5209278753191268,0.006819182720753188,-0.02022720458936085,-0.005204487815461845,0.0,1.2069730945522684e-15,9.85568325
355,186.743,0.7160493827160493,-0.033243317272177234,0.03677374210704083,-0.8521568856377368,-0.5209327422619799,0.008636682868003738,-0.0135564008420341,-0.0048273402862252434,0.0,1.2074630895996089e-15,9.8596843632
356,186.854,0.6571428571428571,-0.03357715055825257,0.03627837493503691,-0.8521678889379073,-0.5209279513477248,0.009598481647670323,-0.006564274573698254,-0.0033418118655680782,0.0,1.208529549408527e-15,9.8683926684
357,186.95,0.6216216216216216,-0.03389081722082433,0.03587996466763518,-0.8522300037803993,-0.5208336123732096,0.010962672179110745,-0.0015632813913267405,0.003199378214021824,0.0,-0.00031256254979885304,9.87529655
358,187.057,0.5625,-0.034546272997492695,0.03580390447130339,-0.8529441151653904,-0.5196226295447242,0.019010187531133378,-0.008816732872884543,0.07493584101417132,0.0,-0.004493086653384404,9.87529655
359,187.178,0.5904761904761905,-0.035287489343070993,0.03571789247358238,-0.8537516616848665,-0.518253200364848,0.028110648817066278,-0.017019234081001994,0.15605838305920697,0.0,-0.00922059521912173,9.87529655
360,187.266,0.6285714285714286,-0.03628078901035621,0.03530655568762906,-0.8650237007115631,-0.49787106057505853,0.03102652069926211,-0.018322153940796723,0.37382625782483825,0.0,-0.01267019179999797,9.878160091799998
361,187.376,0.593103448275862,-0.037639083089532684,0.034702800131781536,-0.8818581157107994,-0.4674140558818161,0.0337203386127947,-0.018753234699368362,0.6868159803151878,0.0,-0.016985117799998506,9.8824750178
362,187.479,0.5301724137931034,-0.03784082951011971,0.035074886190138814,-0.8988261998488681,-0.4332809842897982,0.025978172391652704,-0.015150162607431156,0.8931430420875556,0.0,-0.018201142399998736,9.8851032
363,187.572,0.5215311004784688,-0.0362247526099323,0.036986108726876105,-0.9161717202711388,-0.3930275180921396,0.0017388946488523932,-0.0051639273278424064,0.9336700322627981,0.0,-0.014553068599999155,9.8851032
364,187.659,0.5200803212851406,-0.03471293873556344,0.038774026583823874,-0.9323981748597144,-0.35537104971368516,-0.02093655872344443,0.004178034707901807,0.9715823779106052,0.0,-0.011140354399999584,9.8851032
365,187.786,0.536,-0.030890529767834705,0.04230448643380045,-0.9519312540695204,-0.2954353155984206,-0.033217982600528335,0.011937041035983231,1.0076910238341976,0.0,-0.00980664999999879,9.888736739641434
366,187.855,0.438,-0.028492902072370277,0.044405449873054684,-0.9617186489566338,-0.26188542843020896,-0.03575521828495386,0.014985004458502049,1.0234885567212944,0.0,-0.009806649999998788,9.891432591633466
367,187.972,0.29831932773109243,-0.024311504478062816,0.04778298024988733,-0.9766067539790027,-0.20401606011134504,-0.03723923280835024,0.01899681872129459,1.0468010663986227,0.0,-0.012003339600000357,9.89490985
368,188.085,0.2744630071599045,-0.019917397174998748,0.050477190932898375,-0.9857427397345312,-0.14511530983632248,-0.03002074521034831,0.019321222275495716,1.0586498498916646,0.0,-0.02086855120000032,9.89490985
369,188.159,0.23627684964200477,-0.01703984018007245,0.05224154129168399,-0.9917255976629291,-0.10654313708985581,-0.02529359403997638,0.01953366354107871,1.0664092302322392,0.0,-0.026674087999999055,9.89490985
370,188.26,0.2911694510739857,-0.013040459540443864,0.053528884684864,-0.9953170652974881,-0.05274548174818143,-0.012491838019117418,0.01933236231645921,1.0729975973267152,-0.0025993530120480444,-0.026820596987950744,9.89490985
371,188.353,0.44594594594594594,-0.009322750788715674,0.05416699623564561,-0.9963904227307596,-0.002646578846527803,0.0023965337818653808,0.018907126577862882,1.0771098740129588,-0.006262077710843575,-0.023157872289155213,9.89490985
372,188.453,0.5185185185185185,-0.005336344882511936,0.05462031691381594,-0.9968265416098396,0.051200229280609015,0.017986391633747933,0.01807734198868326,1.0809286642074587,-0.010198915999999643,-0.01961329999999879,9.895302116
373,188.532,0.6666666666666666,-0.002266221260900833,0.05332308454441776,-0.9920658900550402,0.09357582033373935,0.02732226489484294,0.014773039542138766,1.0796580882072448,-0.013297817399999946,-0.01961329999999879,9.8984010174
374,188.631,0.6026490066225165,0.0015811488471933095,0.05169743891694443,-0.9861000102585207,0.14667940912182859,0.039021650373934305,0.01063220483064714,1.0780658473968507,-0.017181250799999537,-0.019613299999998786,9.902284450799998
375,188.76,0.6590909090909091,0.00605022454947209,0.04873120039916342,-0.9735813645604945,0.21482738127738885,0.04752996026638468,0.0023217249468754685,1.076935516410615,-0.022231011354581096,-0.019613299999998786,9.899481077290837
376,188.858,0.5833333333333334,0.009062790761854237,0.045881656713502486,-0.9607354102534501,0.26586224037234923,0.04925801038029673,-0.006040790374298536,1.0767407303312384,-0.02605990258964173,-0.01961329999999879,9.891823294820716
377,188.974,0.2765957446808511,0.012274426771151488,0.0423433714976209,-0.9433927620474442,0.3257811220435527,0.04948942287851444,-0.01581174076387739,1.0762600927700399,-0.02941995,-0.018422208906881402,9.883912108906882
378,189.054,0.0,0.013788974652684947,0.039576264172732606,-0.9272069809921195,0.3661362926996862,0.046062650498349345,-0.022298184860694244,1.075434218534091,-0.02941995,-0.015245965991901332,9.880735865991902
379,189.16,0.0625,0.015795750595716362,0.035909846967256374,-0.905760821093819,0.4196068938190521,0.041522177094631525,-0.030892723288974796,1.0743399351714593,-0.02941995,-0.011037444129553611,9.876527344129554
380,189.254,0.45454545454545453,0.016851300449794278,0.03275908538932612,-0.8829771719573933,0.46435032326445536,0.035716267302633345,-0.03595276735722948,1.0730174481868746,-0.031871612499999445,-0.007354987499999344,9.872844887500001
381,189.35,0.6041666666666666,0.017565452906912426,0.029591835881461016,-0.8578165487535978,0.5087020197462192,0.028892594167874985,-0.03983321989930741,1.0714898889973052,-0.035607479166666116,-0.003619120833332678,9.869109020833333
382,189.462,0.6,0.018237813055240398,0.025973202277208948,-0.8272936725493505,0.559750297467534,0.02109973457828307,-0.04361929413676245,1.0698209676742556,-0.0392266,1.2079002420438054e-15,9.863253983800004
383,189.563,0.49295774647887325,0.01813428781865927,0.02304760096171936,-0.7946094214949829,0.602715547320983,0.014814205616714055,-0.04376221358776076,1.068815760612488,-0.0392266,1.206444668520823e-15,9.851368324000003
384,189.642,0.5633802816901409,0.01805331263361066,0.020759259338712404,-0.7690445122544353,0.6363220298796248,0.009897801775486282,-0.0438740020692347,1.0680295095443728,-0.0392266,1.2053061506167077e-15,9.842071619800002
385,189.775,0.5409836065573771,0.0066434323135761645,0.008681456440864512,-0.285660944143864,0.20257752566325704,0.006153098893800808,-0.04174509668255218,0.902293850701166,-0.0392266,0.0032037661354594247,9.829662417729084
386,189.884,0.4918032786885246,-0.008453872160354328,-0.005409477438582923,0.3349473569570136,-0.4028241974534882,0.005394323413590566,-0.03881928061999661,0.6826614041727537,-0.0392266,0.007462430876494917,9.821145088247013
387,189.966,0.4838709677419355,-0.016532410640984724,-0.012903385930868046,0.6737656385514714,-0.7385481224506686,0.0031622132932031476,-0.0362542228572863,0.5308695437898402,-0.03836705298804705,0.011525744023907098,9.81645665
388,190.086,0.5681818181818182,-0.015267477827942612,-0.011471192080596503,0.6584876382713435,-0.7520495955622526,-0.006734707856560017,-0.031047767525411666,0.3623608203522884,-0.033678614741035014,0.02090262051793118,9.81645665
389,190.181,0.7560975609756098,-0.014266072684284325,-0.010337371949131587,0.6463925547162427,-0.7627382617755893,-0.014569770433455465,-0.026925990387677783,0.2289580809642332,-0.029966934462150666,0.02832598107569987,9.81645665
390,190.284,0.7317073170731707,-0.012992141641200262,-0.009799551248502335,0.6400022238853524,-0.7681572018911745,-0.015558160214324407,-0.024278635226731026,0.16332132940090893,-0.02941995,0.0294199500000012,9.812937328024192
391,190.363,0.74,-0.011992342896142635,-0.009470475045921108,0.6359120677086627,-0.7715690860704216,-0.01541058908426955,-0.022467906076100698,0.1225099289609573,-0.02941995,0.0294199500000012,9.809813435483871
392,190.447,0.7627118644067796,-0.01093655069961695,-0.00912838329968661,0.6316865683064091,-0.7750924507739154,-0.015203862331807746,-0.020559729337692425,0.08040314835310164,-0.02941995,0.0294199500000012,9.80665
393,190.56,0.8604651162790697,-0.009712258664603537,-0.008878370175316114,0.6293257413233643,-0.7770217030767442,-0.013585486687719962,-0.018454342558980163,0.05840260876715374,-0.02941995,0.0294199500000012,9.80665
394,190.683,0.8372093023255814,-0.008379622201712927,-0.008606231995691611,0.6267559915984572,-0.7791216856718586,-0.011823891960084716,-0.01616263836622274,0.0344551187753715,-0.02941995,0.0294199500000012,9.80665
395,190.786,0.673469387755102,-0.00747684711569733,-0.00841013281313071,0.6257924045103668,-0.7799067366047218,-0.01070007133111369,-0.01486193766072405,0.023282790180296768,-0.02941995,0.0294199500000012,9.80665
396,190.887,0.8571428571428571,-0.006614078336428985,-0.008221193169496386,0.6249728228010226,-0.7805739020315853,-0.009635116964578751,-0.013651693440973896,0.013263831071556764,-0.02941995,0.0294199500000012,9.80665
397,190.991,0.7777777777777778,-0.00585624927856839,-0.008033629558420645,0.6244082089296703,-0.7810346409889533,-0.008452099949121453,-0.012329713948070977,0.005985244892537531,-0.02941995,0.0294199500000012,9.80665
398,191.053,0.7333333333333333,-0.005495277257383948,-0.007926673104242095,0.6242658771706843,-0.7811519571995489,-0.007686726395040933,-0.011488899663090905,0.0037590318918233473,-0.02941995,0.0294199500000012,9.80665
399,191.173,0.7872340425531915,-0.004796621732510621,-0.0077196606122835465,0.6239903963468402,-0.7813790208329601,-0.006205358225852378,-0.009861517176032205,-0.0005497674643989686,-0.02941995,0.0294199500000012,9.80665
400,191.249,0.7115384615384616,-0.004472601921480746,-0.007611904607401792,0.623968762465555,-0.7813993002013822,-0.005978449654071569,-0.008960487269073024,-0.0017097387537062434,-0.027232012151394876,0.027232012151396076,9.80665
401,191.36,0.746031746031746,-0.00406115421051353,-0.0074667048673903,0.6240168880801702,-0.781364484713467,-0.006018065005184651,-0.007712134703681925,-0.002585524914830881,-0.02289520677290769,0.02289520677290889,9.80665
402,191.459,0.7407407407407407,-0.0037120061802967076,-0.0073305625000368545,0.62408321677038,-0.7813146400859823,-0.00568450531916638,-0.00668207290638455,-0.00345220463911471,-0.0202040620481933,0.0202040620481945,9.80665
403,191.595,0.7159090909090909,-0.0033694476132905345,-0.007092458387318106,0.624354394479716,-0.7811015936219798,-0.002388419558660756,-0.00590811904153254,-0.0053011031454824956,-0.025560304618473743,0.025560304618474944,9.80665
404,191.669,0.6818181818181818,-0.003183055451831256,-0.006962901737750526,0.6245019470568547,-0.7809856712812726,-0.0005949611301499878,-0.005486997085657098,-0.006307121450418108,-0.02847473072289162,0.02847473072289282,9.80665
405,191.787,0.5728155339805825,-0.00304021039157684,-0.006809860382365473,0.6248101803332876,-0.7807409340042837,0.0005591192860155938,-0.004568230886012365,-0.006590423200279477,-0.02941995,0.025732649600001434,9.80665
406,191.88,0.5825242718446602,-0.002958693370258007,-0.006700018495372216,0.6250677887370022,-0.7805359967880992,0.0011254479535854343,-0.0037943659089507064,-0.006547905918210752,-0.02941995,0.02208457580000185,9.80665
407,191.96,0.5508474576271186,-0.0029053700317062093,-0.006597698987403053,0.6253025337716088,-0.7803490743877068,0.0015688988647286311,-0.003257001560938314,-0.006919073649641231,-0.02941995,0.020277495418327796,9.80665
408,192.08,0.52,-0.0029187667571537444,-0.00640068377977079,0.6257277298842765,-0.7800095875856682,0.0019910794096550375,-0.0031642963760996155,-0.00974238961118776,-0.02941995,0.02496593366534037,9.80665
409,192.163,0.496,-0.002928032825588289,-0.0062644149278251494,0.6260218238622051,-0.7797747758809247,0.0022830876198957854,-0.0031001752899195195,-0.011695183151257333,-0.02941995,0.028208770119523878,9.80665
410,192.277,0.5241935483870968,-0.003027661388800025,-0.006079552214501673,0.6264600587008707,-0.7794236706220162,0.003625595942139485,-0.002338847746917443,-0.012514505845805,-0.03268883333333296,0.026151066666668242,9.80665
411,192.36,0.5241935483870968,-0.0031238291312711826,-0.005945585096483113,0.6267884512104308,-0.7791602661203008,0.004859040956944368,-0.0016014690433317593,-0.012604471916953732,-0.03595771666666704,0.02288218333333416,9.80665
412,192.456,0.5537190082644629,-0.0032419036973243185,-0.005787052890030915,0.6271744876919844,-0.778850461889383,0.0060869838311466895,-0.0008577911050589617,-0.012617871276589159,-0.038718685856574564,0.020121214143426637,9.80665
413,192.561,0.5849056603773585,-0.0034188434262562906,-0.00558864256037386,0.6276400736196254,-0.7784756948458239,0.0060425434647447054,-0.0008069126710455211,-0.011999447837442242,-0.03461630239043801,0.02422359760956319,9.80665
414,192.68,0.6666666666666666,-0.0036193751190458237,-0.005363777520095901,0.6281677376709517,-0.7780509588631236,0.0059921777161558,-0.0007492504458302986,-0.011298567939742528,-0.029966934462150728,0.028872965537850473,9.80665
415,192.76,0.6082474226804123,-0.0037842471513127446,-0.005240357624004155,0.6285506919577915,-0.7777414043418744,0.006136585156018108,-0.0003271184452102737,-0.01146864033786646,-0.02941995,0.0294199500000012,9.80665
416,192.865,0.5979381443298969,-0.004009010896509483,-0.00508609482893688,0.6290611767628097,-0.7773284272794299,0.0063757510092782785,0.00033366279704611127,-0.011870390791670403,-0.02941995,0.0294199500000012,9.80665
417,192.949,0.5591397849462365,-0.004185968888959706,-0.004964047285412831,0.6294707699176298,-0.7769969863976326,0.006561207477433749,0.0007845595974356343,-0.012218340311154909,-0.02941995,0.0294199500000012,9.80665
418,193.064,0.6626506024096386,-0.004377456134073897,-0.00482121106906423,0.6300529741135666,-0.7765243762427533,0.006710523587328732,1.8482012776299445e-05,-0.013167211544733298,-0.02941995,0.0294199500000012,9.80665
419,193.166,0.6144578313253012,-0.004547296994957824,-0.004694521555433271,0.6305693639221367,-0.7761051915836428,0.006842960484800831,-0.0006609954970955983,-0.014008819073646477,-0.02941995,0.0294199500000012,9.80665
420,193.224,0.64,-0.004670440565453592,-0.004608774009403257,0.6308684061979432,-0.7758618677719169,0.006927458300109366,-0.0006463901295483873,-0.014096617126410992,-0.02941995,0.0294199500000012,9.80665
421,193.36,0.72,-0.005017333902601197,-0.004377709862141196,0.6315814460864898,-0.7752804518456522,0.00714570470154287,0.0002653928822838388,-0.013447301151851767,-0.02941995,0.0294199500000012,9.80665
422,193.456,0.6962025316455697,-0.005253377535423703,-0.004218095213128834,0.6320854404456796,-0.7748693079453691,0.007240243131294915,0.000696549042361079,-0.012990833275020229,-0.02992989579999909,0.0294199500000012,9.80665
423,193.558,0.654320987654321,-0.005444326790074937,-0.004072175902959309,0.6326254936437824,-0.7744274974516069,0.006936941696330963,-0.00028657127753812974,-0.012518540658056826,-0.03393100899999924,0.0294199500000012,9.80665
424,193.693,0.6129032258064516,-0.0056970537447604205,-0.0038790474042055046,0.6333402699353893,-0.7738427482686863,0.006535513326525688,-0.001587759936228396,-0.011893447488546371,-0.0392266,0.0294199500000012,9.80665
425,193.8,0.6382978723404256,-0.00579260031894747,-0.00372829710520965,0.6339287099937935,-0.7733602707479011,0.005612036998620164,-0.0017583568059351606,-0.013497683456138124,-0.035062665277777495,0.025256015277778692,9.810813934722221
426,193.89,0.5980392156862745,-0.005872966596301042,-0.0036014977882972833,0.6344236595756286,-0.7729544485341568,0.004835281208793298,-0.0019018495000809983,-0.014847040812056051,-0.0315602902777782,0.021753640277779405,9.814316309722221
427,193.977,0.6041666666666666,-0.005957108904235408,-0.0034785613655316902,0.6348897673708646,-0.7725717240222997,0.0038447734697843504,-0.0019634617296193303,-0.01565585500863661,-0.02941995,0.020873592369479558,9.815196357630521
428,194.096,0.5894736842105263,-0.006087375165588739,-0.003309551796563786,0.635498298438178,-0.7720707264066636,0.001926554289102025,-0.0018664850959980613,-0.015597124505473901,-0.02941995,0.025560304618475624,9.810509645381526
429,194.182,0.6210526315789474,-0.00618151716959197,-0.003187410427393726,0.635938077192707,-0.7717086609029268,0.000540278242558746,-0.0017964011422885854,-0.015554680612431952,-0.02941995,0.028947340361446958,9.807122609638554
430,194.266,0.6091954022988506,-0.006266599188211942,-0.003078571888257024,0.6363666505839091,-0.7713547456271936,0.000490559263620531,-0.0017957024034112713,-0.014303015083074522,-0.03224426520000011,0.04071721080000163,9.80665
431,194.36,0.5357142857142857,-0.006360528590345065,-0.0029587276883285044,0.6368460622214042,-0.7709586472420495,0.0006781870340928939,-0.001807557392865424,-0.012676628224551241,-0.03593156560000099,0.05546641240000516,9.80665
432,194.48,0.5238095238095238,-0.006471247251167447,-0.002813106341566438,0.6374541550070603,-0.7704557565484348,0.0012497895155102168,-0.0018116346523165713,-0.01144308718293906,-0.0392266,0.06158576200000094,9.805237842399999
433,194.558,0.6111111111111112,-0.006529274372436302,-0.002729632193656203,0.6378434668438108,-0.770133073940243,0.002124982258305002,-0.001797515437006951,-0.01191937671601775,-0.0392266,0.04628738800000035,9.8021781676
434,194.68,0.6666666666666666,-0.006620034741600416,-0.0025990700648735178,0.6384523904859077,-0.7696283652453788,0.0034938734713943877,-0.0017754315361380559,-0.012664342395961398,-0.0392266,0.02235916199999758,9.7973925224
435,194.771,0.603448275862069,-0.0066394267299630565,-0.0024663484023606944,0.6389011263784808,-0.7692558805204577,0.0030155212515965255,-0.002414825120940791,-0.013930738359689684,-0.03620615180000007,0.022633748200001125,9.799863798199999
436,194.898,0.7090909090909091,-0.006654232726483944,-0.0022721553031485823,0.6395259983908166,-0.7687370486843431,0.0019674610141664104,-0.0034735891595483494,-0.01587846989929688,-0.031224373599999695,0.027615526400001505,9.8048455764
437,195.0,0.8,-0.006388023099673061,-0.0017962500033132476,0.6399888512197676,-0.7683547924047694,0.001505525853484852,-0.00919196810200921,-0.01493818737566437,-0.02941995,0.0294199500000012,9.8044533104
438,195.07,0.6515151515151515,-0.006048557563797744,-0.001289290450997137,0.6402845027621823,-0.7681118762330708,0.001402622364461415,-0.015860580109060267,-0.012880987264215804,-0.02941995,0.029419950000001197,9.8017074484
439,195.16,0.6417910447761194,-0.005612101874815135,-0.0006374853123049069,0.6406646261738583,-0.7677995554408868,0.001270317878574121,-0.024434509832412785,-0.010236015692353006,-0.02941995,0.029419950000001197,9.7981770544
440,195.235,0.7121212121212122,-0.005005733331866215,0.00015448720366102503,0.6409812596315025,-0.7675383864620487,0.000918811296578311,-0.02972364452481396,-0.009683725520968708,-0.031028240600000992,0.029419950000001197,9.7984516406
441,195.36,0.7230769230769231,-0.0036597416164199483,0.0018183134814853473,0.6415087940214412,-0.7671018586449363,-4.71896492130466e-07,-0.035973932862283065,-0.011046290494501862,-0.03593156560000099,0.0294199500000012,9.8033549656
442,195.464,0.6615384615384615,-0.0015898505767377232,0.004376669606585082,0.6417042360119939,-0.7669119438674741,-0.00175823392003341,-0.058075403312296776,-0.009987076362260042,-0.0392266,0.028638543625498822,9.805868593625497
443,195.541,0.6233766233766234,0.002896880159834908,0.009921689342230302,0.6410918507019732,-0.7673101567426777,-0.006147248233553856,-0.1269953185581175,-0.002383873853609192,-0.0392266,0.02563012908366628,9.802860179083664
444,195.68,0.6282051282051282,0.010996303177804458,0.019931530163720682,0.6399863759215458,-0.768029008556357,-0.014070274072247367,-0.25140919153435115,0.011341387817852747,-0.0392266,0.02019935478087715,9.797429404780875
445,195.76,0.6619718309859155,0.017187709993821534,0.025483080353303718,0.6395992178851775,-0.7680041830912345,-0.02440323684364524,-0.2351013851165782,0.010973128909245226,-0.03412714200000018,0.017063571000001224,9.274148905000018
446,195.875,0.676923076923077,0.026595361709157328,0.03339393307753604,0.6391253078447665,-0.7678230149187298,-0.041171935275198024,-0.18249549508094476,0.007701109535991974,-0.025105023999999466,0.012552512000000755,8.349381809999946
447,195.96,0.7384615384615385,0.033155868647191014,0.038488876586294525,0.6388214204642237,-0.7676681440055579,-0.052300660904632486,-0.1457848336143619,0.005339610120365379,-0.019022537951806636,0.00921588795180759,7.7947507686747075
448,196.055,0.5753424657534246,0.0384385668448936,0.04025994163965554,0.6387237579345442,-0.7673857113219368,-0.05813804231434559,-0.11608349576771484,0.002997318941474813,-0.01528104497991906,0.00547439497992002,7.847131670281134
449,196.177,0.6986301369863014,0.045222663477732,0.042534362023971546,0.6385983386859032,-0.7670230082966549,-0.06563446896681847,-0.0779407250593932,-1.0676046152753756e-05,-0.010476180321284993,0.0006695303212859612,7.914399775502011
450,196.283,0.6805555555555556,0.05023638940367893,0.042653540189224244,0.6386497035763268,-0.7666507210279745,-0.06998580843210216,-0.0634612858295442,-0.001600433468120147,-0.00980665,-0.006982334799998908,8.049455226399997
451,196.426,0.6527777777777778,0.056773258402540924,0.04233580822355165,0.6387603138242339,-0.7661337572561069,-0.07529890984296796,-0.04873636215925224,-0.003481302151922122,-0.00980665,-0.018201142399998937,8.2513937632
452,196.509,0.6712328767123288,0.06041181347947132,0.041540531250228455,0.6388822168492813,-0.7657870867780489,-0.07791331976652138,-0.04328147530555738,-0.0037256500590592567,-0.00725692100000009,-0.017063570999999063,8.389000675999995
453,196.57,0.7105263157894737,0.06305427004486312,0.04083172744818535,0.6389835519794894,-0.7655228177776626,-0.0797392167448999,-0.03990169996023152,-0.003732777867466207,-0.004864098399999813,-0.014670748399998773,8.494284870400008
454,196.69,0.8072289156626506,0.06825254525546956,0.039437359313018686,0.6391828997766204,-0.7650029443342798,-0.0833311452269557,-0.03325296157598444,-0.0037467997856438133,-0.00015690639999963417,-0.00996355639999857,8.701401318400016
455,196.772,0.6352941176470588,0.07161088787134504,0.03797014422464193,0.6394466928493854,-0.7645329665739236,-0.08521087932586677,-0.028769806712865668,-0.004887822777032892,0.0,-0.01592599959999915,8.821513167600004
456,196.867,0.6823529411764706,0.07549013586717333,0.0362397604515509,0.6397598861043653,-0.7639816637363619,-0.08735447290539745,-0.023579481407999894,-0.006276961000636244,0.0,-0.023379053599999047,8.959394666600003
457,196.961,0.6565656565656566,0.0792530496990048,0.034489639310861124,0.6401002751923384,-0.7634092892005124,-0.0887123167868183,-0.019034187721728577,-0.008110470878395667,0.0,-0.029419949999998887,9.090260650988169
458,197.072,0.6923076923076923,0.08329267430353046,0.03222001867930745,0.6406653155529328,-0.7625896581615706,-0.08623378391086804,-0.016824644971859645,-0.012730531103673715,0.0,-0.029419949999998873,9.215033798616608
459,197.162,0.6777777777777778,0.08656804560449764,0.030379785734804227,0.6411234563858474,-0.7619250924543205,-0.0842241626600973,-0.015033123823317038,-0.016476525880926667,0.0,-0.02941994999999886,9.316201215612654
460,197.261,0.7555555555555555,0.08984102540306067,0.028475557977290282,0.6417837278796324,-0.7610612318297415,-0.07709456811308411,-0.0124691843963889,-0.019106130398478038,0.0,-0.02941994999999885,9.401281997975705
461,197.384,0.6777777777777778,0.09368328459046202,0.02619125269090234,0.6427102746071504,-0.7598976933324537,-0.06489436114244673,-0.008880588752010383,-0.021360160692440247,0.0,-0.029419949999998838,9.489184520647768
462,197.464,0.6326530612244898,0.09588545521088682,0.02481302947740852,0.643384519421621,-0.7591070248756848,-0.056355429589747055,-0.005988669637590066,-0.023230961784720814,0.0,-0.02863541799999843,9.547754440000007
463,197.567,0.6703296703296703,0.09757412911821078,0.02345380052542775,0.6445292140470135,-0.7579581180604147,-0.04302923253178352,-0.00011053867079210185,-0.027203023500741254,0.0,-0.024595078199998083,9.628561236000014
464,197.668,0.7162162162162162,0.09923001324092637,0.022120964368631195,0.6456516815923011,-0.7568315201153442,-0.029961796581742823,0.005653453830630608,-0.03109795780479977,0.0,-0.02063319159999811,9.707798968000013
465,197.774,0.7272727272727273,0.09910343105901247,0.02105837871416666,0.6471817497704444,-0.7555684746832991,-0.01323930416551689,0.018150064680312716,-0.03428430246218828,0.003113222222222591,-0.019613299999998807,9.759329022222225
466,197.875,0.71875,0.09840545871446407,0.02015003607636392,0.6487486588931319,-0.7543400241574901,0.003625925826205228,0.03205373831507297,-0.03704120894332267,0.007043665277777963,-0.0196132999999988,9.79863345277778
467,197.971,0.765625,0.09707027901028642,0.01922155149237918,0.6503768607020428,-0.7531315214833053,0.018526680860669113,0.045946364477277735,-0.04043778851628337,0.00980665,-0.019613299999998796,9.833127955000002
468,198.076,0.7213114754098361,0.09352327032347732,0.018003775394027546,0.6525890478996119,-0.7516827800219891,0.031315677911042616,0.06324514210224076,-0.04656372457742665,0.00980665,-0.019613299999998793,9.861959505999998
469,198.176,0.7586206896551724,0.0901451668122304,0.016843988633692613,0.6546958928496779,-0.7503030262493068,0.04349567510187501,0.07972016841173003,-0.05239794939756334,0.00980665,-0.01961329999999879,9.889418125999997
470,198.28,0.6896551724137931,0.08481624262613521,0.01497162244824821,0.657358189924817,-0.7485993269408249,0.0501851484540012,0.09538699253912988,-0.059141336549674746,0.01312825725806477,-0.02293490725806356,9.89490985
471,198.38,0.7183098591549296,0.07927659562155784,0.013018754789465913,0.6600259614547281,-0.7468996262813663,0.05524880787537967,0.11011534833139056,-0.0657800772497734,0.01708255161290341,-0.026889201612902196,9.89490985
472,198.447,0.6666666666666666,0.07553416040040443,0.011686377002995229,0.6618277121381977,-0.7457461039455926,0.05850704313814648,0.11975870633125407,-0.07015160328149855,0.01949562019999944,-0.029066910599997102,9.89490985
473,198.546,0.7222222222222222,0.06903114283904212,0.008962475002955828,0.6649421499809557,-0.7435775447928337,0.05908431982994082,0.12692664599418668,-0.07420175874233263,0.015612186799999848,-0.017416610399998332,9.89490985
474,198.649,0.8043478260869565,0.062265377093381036,0.006128516356449649,0.668182423696149,-0.7413213670884476,0.05968492083251484,0.13438419938087554,-0.07841555684804968,0.011571846999999509,-0.005295590999997317,9.89490985
475,198.741,0.7391304347826086,0.056029747943054195,0.003555852019730443,0.6712786550684999,-0.7390258661245311,0.06085732784867336,0.13769483834505084,-0.08276964834332604,0.011650300200000999,1.2108738394389402e-15,9.887535249199995
476,198.858,0.7209302325581395,0.04786535830461766,0.00023373145622218507,0.675462221099837,-0.735765319439433,0.06312266820669205,0.13782549142837527,-0.089025692462922,0.016239812400000615,1.2086256268687893e-15,9.869177200399998
477,198.982,0.7142857142857143,0.03924990917207073,-0.003068163979042436,0.6800306794401886,-0.7320820115719254,0.06516376612670878,0.13545826130891636,-0.09654590086751805,0.0196133,1.2067912746573486e-15,9.854198577888447
478,199.044,0.7142857142857143,0.034984515007573595,-0.004471313471346683,0.6824672117662843,-0.7299827132484983,0.06577720056729508,0.13143924881974878,-0.10131296441255974,0.0196133,1.2064946211445847e-15,9.85177621812749
479,199.14,0.6923076923076923,0.02838003372061326,-0.006643932040074866,0.6862399069808827,-0.7267321868122254,0.06672703453981538,0.1252162617397502,-0.10869422409520163,0.0196133,1.2060352866732085e-15,9.848025467529881
480,199.272,0.6451612903225806,0.019981070627120366,-0.009288759856727656,0.6916367677192733,-0.7218425647143907,0.064019517838955,0.11598704940080655,-0.11384939497709273,0.0196133,1.2050323298549586e-15,9.8398357036
481,199.36,0.5483870967741935,0.014706618410543187,-0.01088887234623491,0.6953343914583517,-0.718382746054901,0.06030329793691549,0.10951395303010789,-0.11490805119276072,0.0196133,1.204186848204645e-15,9.832931821999999
482,199.472,0.7142857142857143,0.008857176683594946,-0.009367832466984975,0.5461475124317425,-0.5611523735995655,0.0557455125163831,0.10091372256178316,-0.11712255176291479,0.0196133,1.2033701897924109e-15,9.8262633
483,199.558,0.8888888888888888,0.006452997691010815,0.00039986623016924697,0.05958356882687432,-0.07098899635198408,0.05266144156575676,0.09343551981999676,-0.1209190851713281,0.0196133,1.2033701897924109e-15,9.8262633
484,199.682,0.1111111111111111,0.0029865070505401712,0.01448352481676573,-0.6419737452081529,0.6357581987492816,0.04821464159043441,0.08265299493648924,-0.12639315659741318,0.0196133,1.2033701897924109e-15,9.8262633
485,199.866,1.0,-0.0032964082394141476,5.009898594422399e-05,-0.7170964914939514,0.6968389985665896,0.015512308723288466,0.024930914712130076,-0.04020845593603907,0.026360275200000997,-0.013493950400000796,9.819516324799999
486,200.042,1.0,-0.005963879001303938,-0.007137837009948411,-0.7202898915102673,0.6936107911982013,0.000901025946973733,-0.0007895789453778363,-0.0008190773954833836,0.01793327629481939,-0.0157844087649386,9.81262775876494
487,200.867,1.0,-0.001261511456739801,-0.006807040528582108,-0.7164221069422242,0.6976315782453953,0.001017578989847161,-0.0007664995684273948,-0.0004863339854070942,0.0,-0.0098066499999988,9.80665
488,200.943,0.75,-0.0006622854180382497,-0.006752507844730832,-0.7160363561785211,0.6980299725126681,0.0010221446773711357,-0.0007662856776959441,-0.0004645687358540786,0.0,-0.0098066499999988,9.80665
489,201.058,1.0,0.00012789946590849267,-0.006663780163951033,-0.7156670628785677,0.6984090315684917,0.0010405089277774095,-0.0007544542129617186,-0.00046143780555576075,0.0,-0.0098066499999988,9.80665
490,201.453,1.0,0.002393465744163565,-0.0063629467822959645,-0.7148792279392924,0.699214876182809,0.0010321143642067928,-0.0006826393720693905,-0.0004666215842589729,0.0,-0.0098066499999988,9.80665
491,201.731,1.0,0.0034375078533135125,-0.006151004981209013,-0.7147967284853012,0.6992967264661836,0.0010666425060480828,-0.0007226200932636857,-0.00045651654340326793,0.0,-0.0098066499999988,9.80665
492,202.054,1.0,0.004320926825142517,-0.005948609695972559,-0.7148589123530326,0.6992300032703168,0.0009465034303720994,-0.0005605127415619667,-0.00045875991927459627,0.0,-0.0098066499999988,9.80665
