,time,img_sim,orientation.x,orientation.y,orientation.z,orientation.w,angular_velocity.x,angular_velocity.y,angular_velocity.z,linear_acceleration.x,linear_acceleration.y,linear_acceleration.z
0,99.334,0.988,-0.00031085176180079954,0.00043936096645025004,-0.7076208122184806,-0.7065921712330168,0.00025397550666639393,-0.0002751315639670783,-0.00017490590380475892,0.0,-0.0098066499999988,9.80665
1,99.412,0.998,-0.00031313129973779884,0.0004387656005987888,-0.7076216887374819,-0.7065912927891491,0.0002622545125632327,-0.00026733099912234923,-0.00019694753427757297,0.0,-0.0098066499999988,9.80665
2,99.526,0.992,-0.000316462932107259,0.0004378954505081916,-0.7076229698037145,-0.7065900089096504,0.00027435459810476486,-0.0002559301735800543,-0.00022916222496860493,0.0,-0.0098066499999988,9.80665
3,99.612,0.97,-0.0003180582089371307,0.0004381582902975798,-0.7076239484911682,-0.7065890279158114,0.00028367332299239945,-0.0002511415779590608,-0.00024227479053661206,0.0,-0.0098066499999988,9.80665
4,99.732,0.996,-0.000316974891029185,0.0004418386868593026,-0.7076253583272772,-0.7065876141978844,0.0002973632060457027,-0.00025820084474980867,-0.00022023626649752154,0.0,-0.0098066499999988,9.80665
5,99.806,0.988,-0.0003163068449859519,0.0004441082647390315,-0.7076262277262111,-0.7065867424051628,0.0003058053005952392,-0.0002625540592707696,-0.00020664584334008327,0.0,-0.0098066499999988,9.80665
6,99.909,0.994,-0.00031551944761504995,0.0004471933952217883,-0.7076269335539631,-0.7065860339422896,0.0003006237975824762,-0.0002713276568452377,-0.00018710096508832875,0.0,-0.0098066499999988,9.80665
7,100.012,0.986,-0.0003147962532864398,0.00045024522922406914,-0.7076274120998785,-0.7065855530752913,0.00028781097695085566,-0.00028132464307506223,-0.00016727282894292775,0.0,-0.0098066499999988,9.80665
8,100.124,0.99,-0.00031439370104858555,0.00045420342485886746,-0.707627984029164,-0.7065849779443761,0.00028716362989507425,-0.00028754873585421615,-0.00015121216862462494,0.0,-0.0098066499999988,9.80665
9,100.212,0.98,-0.000314688728360293,0.0004583322574011824,-0.7076285155337568,-0.7065844428448155,0.00030781360692344606,-0.0002850389137165621,-0.00014735278091393408,0.0,-0.0098066499999988,9.80665
10,100.325,0.988,-0.00031506757024919003,0.0004636340537339272,-0.7076291980339725,-0.7065837557283342,0.00033433005469851187,-0.0002818160739261657,-0.00014239697623997925,0.0,-0.0098066499999988,9.80665
11,100.412,0.972,-0.00031400080204368346,0.0004667615007205777,-0.7076301406546212,-0.7065828101168123,0.0003271674184361469,-0.00024629216641187533,-0.0001473936979891734,0.0,-0.0098066499999988,9.80665
12,100.524,0.994,-0.000312347683234531,0.00047059104110899503,-0.707631440067794,-0.706581506969335,0.0003122661287197846,-0.0001937542222440254,-0.0001556413808139039,0.0,-0.0098066499999988,9.80665
13,100.612,0.98,-0.0003115683271580213,0.0004734861370746018,-0.7076320123647311,-0.7065809322413635,0.00029772018227147576,-0.00017759264020093005,-0.00017214159456181507,0.0,-0.0098066499999988,9.80665
14,100.73,0.992,-0.0003122787969151958,0.00047698356030101836,-0.7076312636643005,-0.706581679381891,0.00026862623923239095,-0.0002407982147231998,-0.00022812500555231797,0.0,-0.0098066499999988,9.80665
15,100.806,0.984,-0.0003127363876062573,0.00047923613797226937,-0.7076307814504638,-0.7065821605910442,0.00024988776744450884,-0.00028150688983923127,-0.00026418211771568677,0.0,-0.0098066499999988,9.80665
16,100.91,0.982,-0.00031501433446640733,0.00047961039723153846,-0.7076300986390418,-0.706582843145255,0.0002586362054571516,-0.0002762478212825946,-0.00026730716973543116,0.0,-0.0098066499999988,9.80665
17,101.012,0.952,-0.0003179684770183551,0.00047879695502738847,-0.7076294189591844,-0.7065835230600148,0.0002822071600239739,-0.00024451510654762185,-0.000250226575648411,0.0,-0.0098066499999988,9.80665
18,101.113,0.978,-0.0003206967743588357,0.0004789846237950705,-0.7076290547510227,-0.7065838864500854,0.0002969406817416354,-0.0002336011819432023,-0.00023897976217516893,0.0,-0.0098066499999988,9.80665
19,101.212,0.992,-0.0003227843735679807,0.00048212792511274726,-0.7076296179420936,-0.7065833193262734,0.00028573724650406753,-0.00028401221528063446,-0.0002448401807861191,0.0,-0.0098066499999988,9.80665
20,101.332,0.988,-0.0003253147968517925,0.00048593798731599137,-0.7076303005979371,-0.706582631903471,0.0002721573250039868,-0.0003451164981138783,-0.00025194371849636096,0.0,-0.0098066499999988,9.80665
21,101.412,0.982,-0.00033258725938817307,0.00048812956860500587,-0.7076306732900084,-0.7065822536705028,0.0002797525339847792,-0.00033183574564773463,-0.00023307254849783238,0.0,-0.0098066499999988,9.80665
22,101.519,0.988,-0.0003430305392885772,0.0004910161173676442,-0.7076311611960551,-0.7065817580504532,0.00029204635185200886,-0.0003071448815487167,-0.00020480469775284893,0.0,-0.0098066499999988,9.80665
23,101.628,0.982,-0.0003559237947128823,0.000493548306183139,-0.707631658846604,-0.7065812514661747,0.0003028898670354795,-0.00028781084827540684,-0.00018819333232690663,0.0,-0.0098066499999988,9.80665
24,101.747,0.982,-0.0003742462363146255,0.0004955438455050258,-0.707632203329756,-0.7065806952041674,0.00031156415215775066,-0.0002776604836604433,-0.0001930052030041251,0.0,-0.0098066499999988,9.80665
25,101.812,0.982,-0.0003842542926517117,0.0004966338459749639,-0.7076325007365196,-0.7065803913635753,0.00031630220705647003,-0.0002721161668539508,-0.0001956335357269754,0.0,-0.0098066499999988,9.80665
26,101.932,0.984,-0.00040442236053804054,0.0004968045855152371,-0.7076340137530575,-0.7065788645010784,0.00032353224375436155,-0.0002878045650813809,-0.00020777407871180146,0.0,-0.0098066499999988,9.80665
27,102.046,0.992,-0.00042404859472036356,0.0004964588714617971,-0.7076357169845756,-0.7065771475730787,0.0003299823411825033,-0.00030985856640406784,-0.00022131773717278197,0.0,-0.0098066499999988,9.80665
28,102.131,0.986,-0.000439395461455354,0.0004957463308668166,-0.7076369649427812,-0.7065758888582653,0.0003509218133730461,-0.0003108214086529272,-0.00021619846506282714,0.0,-0.0098066499999988,9.80665
29,102.212,0.986,-0.0004548218264728037,0.0004945561668337683,-0.7076381294514257,-0.7065747134874016,0.0003890059391468251,-0.00029433865480624547,-0.0001942157772335591,0.0,-0.0098066499999988,9.80665
30,102.327,0.99,-0.00047672345581856385,0.0004928664277745022,-0.7076397827661679,-0.7065730447509903,0.0004430759942577414,-0.0002709372141597239,-0.00016300578834015642,0.0,-0.0098066499999988,9.80665
31,102.412,0.954,-0.0004883316487022618,0.0004931010805997512,-0.7076409843708995,-0.7065718331502227,0.00039942943933419075,-0.00027803723863326166,-0.00017736952519044566,0.0,-0.006903881599998317,9.8095527684
32,102.537,0.982,-0.0005044013352301967,0.0004937704725585574,-0.7076427469749239,-0.7065700561527528,0.0003169658021069982,-0.0002938116020523027,-0.0002066753362305491,0.0,-0.0020005565999983163,9.8144560934
33,102.612,0.982,-0.0005129444075879984,0.0004939646765490561,-0.7076441801978417,-0.7065686145536021,0.00028414688981138174,-0.0002942711336072532,-0.00021593458717688904,0.0,-0.0009414383999988337,9.8155152116
34,102.714,0.988,-0.0005213876286692231,0.000493629317852106,-0.7076472150398638,-0.7065655690708244,0.0002876584595069291,-0.0002688713965471822,-0.00020447012735530677,0.0,-0.004942551599998986,9.8115140984
35,102.808,0.984,-0.0005291686363323131,0.0004933202617980537,-0.7076500118550607,-0.7065627624494409,0.00029089461197145326,-0.0002454637957271156,-0.00019390484085306375,0.0,-0.008629851999999312,9.807826797999999
36,102.907,0.988,-0.0005333959085537425,0.0004938691958472002,-0.707652588807798,-0.7065601779831936,0.000296619799686596,-0.0002636385711375634,-0.00020189806644339156,0.0,-0.0098066499999988,9.80665
37,103.014,0.986,-0.0005361003287518046,0.0004948733969880917,-0.7076552007741641,-0.7065575592186432,0.00030389637826010597,-0.00030340734845958725,-0.00021952224662527472,0.0,-0.0098066499999988,9.80665
38,103.119,0.976,-0.0005370695544166921,0.000495954482159908,-0.7076576063873055,-0.7065551483753867,0.0003104328239569443,-0.00033027803548611696,-0.00023742278863210338,0.0,-0.0098066499999988,9.80665
39,103.178,0.99,-0.0005353545176478339,0.0004966902519846123,-0.7076587468125715,-0.7065540069441386,0.0003132953622844072,-0.00032907338230870665,-0.0002482937416061765,0.0,-0.0098066499999988,9.80665
40,103.324,0.992,-0.0005311105283554051,0.0004985109705338806,-0.707661568881874,-0.7065511823854568,0.0003203789317049088,-0.00032609237614087755,-0.0002751947438810028,0.0,-0.0098066499999988,9.80665
41,103.413,0.976,-0.0005264788618560135,0.0004990325885400472,-0.7076636229598191,-0.7065491281355437,0.0003426522918744021,-0.00033253586734645097,-0.0002588540490251027,0.0,-0.0098066499999988,9.80665
42,103.527,0.988,-0.0005200573047505195,0.0004995600719455272,-0.7076663338320301,-0.7065464173647767,0.0003754753448301947,-0.00034276446583680876,-0.00023009527963585965,0.0,-0.0098066499999988,9.80665
43,103.607,0.982,-0.0005155111642695698,0.0004993276058540332,-0.7076681402664042,-0.7065446115786276,0.0003841495487140466,-0.00034447704139165474,-0.0002192330722464261,0.0,-0.0098066499999988,9.80665
44,103.722,0.992,-0.0005087924760838762,0.0004962122196356924,-0.7076702942765998,-0.7065424611633527,0.0003303476541768758,-0.00032171538262628014,-0.0002466288378927857,0.0,-0.0098066499999988,9.80665
45,103.79,0.948,-0.000504819686547987,0.0004943700782196296,-0.7076715679521937,-0.7065411896134511,0.00029853436001575905,-0.00030825631483457743,-0.00026282807323150625,0.0,-0.0098066499999988,9.80665
46,103.913,0.988,-0.0004933746200066972,0.0004929660529155116,-0.7076733134034189,-0.7065394503359036,0.00028364690385967886,-0.0002787701014885822,-0.0002719338021495958,0.0,-0.0098066499999988,9.80665
47,104.012,0.996,-0.00048196883724563365,0.0004928291818688063,-0.707674430633071,-0.7065383392748611,0.0002936379664108219,-0.0002523889842142497,-0.0002688594885705785,0.0,-0.0098066499999988,9.80665
48,104.115,0.982,-0.00047004741085861923,0.0004929492595526088,-0.7076755171065403,-0.7065372590824306,0.0003026964273416405,-0.00023168281944479875,-0.0002666226173460017,0.0,-0.0098066499999988,9.80665
49,104.207,0.984,-0.0004592288819119757,0.0004938719817519163,-0.7076762517530568,-0.7065365296211288,0.0003066359274652633,-0.0002341304586274593,-0.00026761230765259814,0.0,-0.0098066499999988,9.80665
50,104.327,0.988,-0.00044511775719896155,0.0004950755324466654,-0.7076772099876436,-0.7065355781498656,0.00031177440588738025,-0.00023732303147440796,-0.00026890320805250656,0.0,-0.0098066499999988,9.80665
51,104.396,0.982,-0.00043699888327407966,0.0004955945773585459,-0.7076774411504549,-0.7065353512418372,0.00031173494845501573,-0.00025145573007133583,-0.0002542288533746676,0.0,-0.0098066499999988,9.80665
52,104.507,0.982,-0.0004239362273635815,0.0004963649575034456,-0.7076776935844041,-0.7065351057891726,0.0003105533417046862,-0.0002787832096387386,-0.0002248649882577182,0.0,-0.0098066499999988,9.80665
53,104.612,0.988,-0.00041141020330703795,0.0004968953599405161,-0.7076778169260094,-0.7065349893567799,0.00031172384487546616,-0.0002996787726619387,-0.00020207873806709893,0.0,-0.0098066499999988,9.80665
54,104.732,0.984,-0.00039640428623932125,0.0004966934092299667,-0.707677487494017,-0.7065353279289496,0.00032238507192522506,-0.0003033710956254387,-0.00019637077888640846,0.0,-0.0098066499999988,9.80665
55,104.812,0.992,-0.00038640034152751077,0.0004965587754229338,-0.7076772678726888,-0.7065355536437292,0.00032949255662506393,-0.0003058326442677719,-0.00019256547276594836,0.0,-0.0098066499999988,9.80665
56,104.932,0.99,-0.0003704663369767239,0.0004964335045500217,-0.7076760755218451,-0.7065367564201417,0.00033561464305967086,-0.0002899279315024617,-0.00020429632277227917,0.0,-0.0098066499999988,9.80665
57,105.012,0.986,-0.0003596553596709393,0.0004963655488626732,-0.7076751055362983,-0.7065377336168717,0.00033877504896372547,-0.00027534857951104697,-0.0002156551985535766,0.0,-0.0098066499999988,9.80665
58,105.132,0.988,-0.0003460620566791445,0.000494964925616129,-0.7076738219839346,-0.7065390271407871,0.00032717069430996466,-0.0002630514153501993,-0.00023986617684368126,0.0,-0.0098066499999988,9.80665
59,105.211,0.966,-0.0003403202612178671,0.0004924550458623438,-0.707673186567268,-0.7065396680886726,0.00029954749710980324,-0.00026665852531286116,-0.0002645745072690064,0.0,-0.0098066499999988,9.80665
60,105.319,0.98,-0.00033247071805561347,0.0004890238178445104,-0.7076723178963822,-0.706540544321225,0.00026178413891210967,-0.000271589764249159,-0.0002983529843061637,0.0,-0.0098066499999988,9.80665
61,105.426,0.992,-0.0003228631972561291,0.0004886732630610914,-0.7076703484411347,-0.706542521550245,0.0002712662414512999,-0.000274503175085074,-0.00029422522157366996,0.0,-0.0098066499999988,9.80665
62,105.532,0.988,-0.0003128760770537199,0.0004891077371980197,-0.7076681130834914,-0.7065447646813461,0.00029268402589417627,-0.0002768836846765893,-0.00028049689518890015,0.0,-0.0098066499999988,9.80665
63,105.614,0.986,-0.00030537071824267536,0.0004893123583103856,-0.707666347626926,-0.7065465361274682,0.0003056007470004261,-0.0002778735854662955,-0.00026743526547215853,0.0,-0.0098066499999988,9.80665
64,105.73,0.984,-0.00029550729559378255,0.0004891523265511074,-0.7076637263345892,-0.7065491658112217,0.0003113889344967902,-0.0002763624815270305,-0.0002406107296701519,0.0,-0.0098066499999988,9.80665
65,105.811,0.988,-0.0002886199056406761,0.0004890405802364391,-0.7076618959494231,-0.7065510020559118,0.00031543068611063083,-0.0002753073141211643,-0.0002218798038084051,0.0,-0.0098066499999988,9.80665
66,105.932,0.988,-0.0002793847604201002,0.0004910376328914587,-0.7076587190581513,-0.7065541862170455,0.00031313942717162943,-0.00029021038367758515,-0.00025629445078647646,0.0,-0.0098066499999988,9.80665
67,106.014,0.982,-0.00027335126320504675,0.0004928532738564238,-0.7076564715734623,-0.7065564383115673,0.000309807458946917,-0.0003038302677469477,-0.0002929455816141145,0.0,-0.0098066499999988,9.80665
68,106.12,0.982,-0.00026635364529874737,0.0004947063237696508,-0.7076533541959095,-0.7065595619503231,0.0003077496745852786,-0.0003153735897429877,-0.0003217733853186157,0.0,-0.0098066499999988,9.80665
69,106.212,0.98,-0.00026188947592182936,0.0004953231396446125,-0.707650222861879,-0.7065626993250441,0.0003104783767383429,-0.0003132236851674933,-0.0003095615150717391,0.0,-0.0098066499999988,9.80665
70,106.332,0.988,-0.00025606664629976273,0.0004961276820902148,-0.7076461385131436,-0.7065667915529411,0.0003140375534597308,-0.0003104194618081529,-0.0002936329886627706,0.0,-0.0098066499999988,9.80665
71,106.423,0.982,-0.00025534070811178146,0.0004939354062032847,-0.707643678062214,-0.7065692575378941,0.000320318900442968,-0.00031118656717801096,-0.00029586898281231555,0.0,-0.0098066499999988,9.80665
72,106.532,0.988,-0.0002548971575025098,0.0004909859554388659,-0.7076408044531715,-0.7065721377246872,0.0003282562916517718,-0.000312439480933743,-0.0003001999545497337,0.0,-0.0098066499999988,9.80665
73,106.621,0.96,-0.00025389597134718803,0.0004896399505901209,-0.7076383810368562,-0.7065745660986752,0.0003285783576083402,-0.0003138103123861724,-0.00029141625456855045,0.0,-0.0098066499999988,9.80665
74,106.722,0.988,-0.0002513336042819628,0.0004904832563165238,-0.7076354588491093,-0.7065774929904596,0.0003151981465693804,-0.00031614222993644385,-0.00025395203020276585,0.0,-0.0098066499999988,9.80665
75,106.808,0.99,-0.00024915178678087957,0.0004912013186182135,-0.7076329706496417,-0.7065799851953453,0.0003038050955857099,-0.00031812782309806147,-0.00022205179955466701,0.0,-0.0098066499999988,9.80665
76,106.932,0.982,-0.00024696194608804956,0.0004927260118901688,-0.7076289728115734,-0.7065839886590805,0.0003212285336635515,-0.000347273994102292,-0.00022379748476114895,0.0,-0.0098066499999988,9.80665
77,107.009,0.984,-0.00024579159395539,0.0004937697767256444,-0.7076264089888473,-0.7065865559455189,0.0003387564845200229,-0.0003705816665647685,-0.00023434294001032992,0.0,-0.0098066499999988,9.80665
78,107.11,0.988,-0.00024420207911824137,0.0004947557708132415,-0.70762314701729,-0.7065898225833738,0.0003578786516053772,-0.0003899244249072974,-0.00024558576306261384,0.0,-0.0098066499999988,9.80665
79,107.212,0.976,-0.00024237441664361003,0.0004941846100945969,-0.7076202657047914,-0.7065927091113983,0.00036136538557433705,-0.00036352834317821946,-0.00024634847798722377,0.0,-0.0098066499999988,9.80665
80,107.332,0.99,-0.0002402242254969852,0.0004935126563079563,-0.7076168759253811,-0.7065961050267212,0.0003654674255378188,-0.0003324741293793079,-0.00024724578966323535,0.0,-0.0098066499999988,9.80665
81,107.412,0.984,-0.00023924395420708576,0.000493764640854401,-0.7076142696779004,-0.7065987151681865,0.000351285860905549,-0.0003094651529903919,-0.00023139350118122807,0.0,-0.0098066499999988,9.80665
82,107.536,0.99,-0.00023781357586505903,0.0004942927430230612,-0.7076101619350964,-0.7066028289080344,0.00032598074842581006,-0.0002733481264566576,-0.0002035902790635465,0.0,-0.0098066499999988,9.80665
83,107.652,0.988,-0.00023564830698183812,0.0004944297837545349,-0.707606689853215,-0.7066063065521905,0.0003097909019931058,-0.0002526699284475948,-0.00021234651914768112,0.0,-0.0098066499999988,9.80665
84,107.751,1.0,-0.00023318550284630928,0.00049428138076623,-0.7076040021211463,-0.7066089989957953,0.00030153577406761303,-0.00024476619081623406,-0.00024566176741953254,0.0,-0.0098066499999988,9.80665
85,107.821,0.988,-0.00023144412618482447,0.000494176449360358,-0.707602101704532,-0.7066109027437988,0.0002956988149283765,-0.0002391776894607272,-0.00026921800357134347,0.0,-0.0098066499999988,9.80665
86,107.931,0.986,-0.00023364094152836698,0.0004912079819014621,-0.7075988181520886,-0.7066141922020966,0.0003148937625331692,-0.00024966948507015646,-0.00025029430311875533,0.0,-0.0098066499999988,9.80665
87,108.012,0.972,-0.00023611574485085058,0.000488534992789014,-0.7075963486282214,-0.7066166661913736,0.0003339570081856609,-0.00026074404717468065,-0.0002266399629485437,0.0,-0.0098066499999988,9.80665
88,108.131,0.988,-0.00023802122157128838,0.0004861567775796418,-0.7075928489881903,-0.7066201716933879,0.0003427626223969407,-0.00027510680979956297,-0.00021995574725695272,0.0,-0.0098066499999988,9.80665
89,108.252,0.992,-0.00023661152075208047,0.0004867345505324356,-0.7075895389593778,-0.706623486331884,0.0003145737974696697,-0.00028602150999347244,-0.00026745278565899435,0.0,-0.0098066499999988,9.80665
90,108.369,0.986,-0.00023619525586490625,0.0004873816753900946,-0.7075861957849104,-0.7066268337595667,0.0002954404345988467,-0.00030066944442756863,-0.00029790772702058613,0.0,-0.0098066499999988,9.80665
91,108.434,0.994,-0.00023763598665047046,0.0004878973839124013,-0.70758408670861,-0.7066289448383813,0.0002991560347243605,-0.00031603675956994926,-0.00028750564515904844,0.0,-0.0098066499999988,9.80665
92,108.535,0.99,-0.00023987466064034717,0.0004886987156162933,-0.7075808095285124,-0.7066322251300781,0.00030492950568862054,-0.0003399152030988799,-0.00027134241026650484,0.0,-0.0098066499999988,9.80665
93,108.615,0.992,-0.000240960116379733,0.0004894155606282598,-0.7075783644852786,-0.7066346725955374,0.00031098142308943566,-0.0003424961965408698,-0.0002597204237467658,0.0,-0.0098066499999988,9.80665
94,108.724,0.99,-0.0002403775150591725,0.000490638437131986,-0.7075754849659611,-0.7066375552880209,0.00032366007664778976,-0.00029705575608418095,-0.0002474242429883469,0.0,-0.0098066499999988,9.80665
95,108.832,0.99,-0.00023980025870485582,0.0004918500945852192,-0.7075726318642521,-0.7066404115337843,0.0003362224122835879,-0.00025203220040233195,-0.00023524087122771376,0.0,-0.0098066499999988,9.80665
96,108.922,0.986,-0.0002392239748349053,0.0004920535212676759,-0.7075695929955002,-0.7066434544310255,0.00034636011030188344,-0.0002642823099186757,-0.0002799006508584751,0.0,-0.0098066499999988,9.80665
97,108.988,0.996,-0.00023879360661925106,0.0004921370033053224,-0.7075673106093492,-0.7066457398861639,0.0003537674587365823,-0.0002773210356511311,-0.00031711736691173115,0.0,-0.0098066499999988,9.80665
98,109.127,0.984,-0.0002400974014969722,0.0004916529867347423,-0.7075623953571245,-0.7066506614023532,0.00036287019681185533,-0.0003047133173095047,-0.0003666505991714092,0.0,-0.0098066499999988,9.80665
99,109.233,0.988,-0.0002457380608385753,0.000489896726407628,-0.707558419130466,-0.706654641986425,0.0003561521396040916,-0.0003254593041492628,-0.0003437789197778327,0.0,-0.0098066499999988,9.80665
100,109.332,0.962,-0.00025100622380856203,0.0004882564455360783,-0.7075547054848133,-0.7066583597017374,0.00034987772768363417,-0.0003448352729901653,-0.0003224176343064776,0.0,-0.0098066499999988,9.80665
101,109.412,0.992,-0.0002531896027483062,0.0004889603533940657,-0.7075524171374037,-0.706660649666365,0.00036032855091616553,-0.00032655957620590854,-0.00032068753871135406,0.0,-0.0098066499999988,9.80665
102,109.553,0.992,-0.00025663170414978395,0.000490598412683173,-0.7075485234716918,-0.7066645458551085,0.0003817876668181261,-0.0002877034392440709,-0.000320679840282537,0.0,-0.0098066499999988,9.80665
103,109.616,0.994,-0.00025763455335469894,0.0004912953964416584,-0.7075466794397589,-0.7066663913436658,0.00037572869076393713,-0.0002756927185691896,-0.0003229535911232229,0.0,-0.0098066499999988,9.80665
104,109.732,0.984,-0.0002580789348005376,0.0004924872447463336,-0.7075430107618916,-0.706670063566458,0.00032357289758511073,-0.0002675975719466809,-0.00033310703095048623,0.0,-0.0098066499999988,9.80665
105,109.812,0.988,-0.00025838540476318496,0.0004933092090943853,-0.7075404806392246,-0.7066725961339009,0.0002876033850479897,-0.0002620147122070198,-0.0003401094032451505,0.0,-0.0098066499999988,9.80665
106,109.906,0.99,-0.00025897949089355974,0.0004945645457758827,-0.7075377928799395,-0.7066752860831647,0.0002981549997348347,-0.0002663035751320425,-0.0003171845923643549,0.0,-0.0098066499999988,9.80665
107,110.012,0.988,-0.0002597613559572794,0.000496118648971731,-0.7075348984112533,-0.7066781826948288,0.00033532075840048386,-0.00027632999280467605,-0.00027642977470532167,0.0,-0.0098066499999988,9.80665
108,110.133,0.988,-0.0002609261831416039,0.0004973329284914024,-0.7075313661066699,-0.7066817179833246,0.0003628747346940347,-0.00029039383327240936,-0.0002649352858757702,0.0,-0.0098066499999988,9.80665
109,110.233,0.99,-0.00026229709596670874,0.0004974973334894056,-0.7075281046821785,-0.7066849826799183,0.00036335284595326,-0.0003059424623008084,-0.0003079466935430135,0.0,-0.0098066499999988,9.80665
110,110.324,0.978,-0.00026354462663755396,0.0004976469420375887,-0.7075251367858915,-0.7066879535538185,0.0003637879271991551,-0.00032009171471664936,-0.0003470870745201989,0.0,-0.0098066499999988,9.80665
111,110.416,0.992,-0.00026598284746820765,0.0004978747039987126,-0.7075221966625538,-0.7066908960541555,0.00036692965053953223,-0.00033866818924434446,-0.0003595671970397232,0.0,-0.0098066499999988,9.80665
112,110.533,0.986,-0.00026944771791536704,0.0004981880253526794,-0.7075184762729495,-0.7066946192707658,0.0003717609019950033,-0.0003636140458984306,-0.00036705846851691615,0.0,-0.0098066499999988,9.80665
113,110.635,0.986,-0.0002730993856695103,0.0004971136419333697,-0.7075155179476338,-0.7066975803847316,0.0003752383480397321,-0.0003642458369352998,-0.0003615416586861028,0.0,-0.0098066499999988,9.80665
114,110.732,0.966,-0.00027739541504193647,0.000494333614993498,-0.707513076634912,-0.7067000247722766,0.0003775870427489281,-0.00033729395040103875,-0.00034057508714290056,0.0,-0.0098066499999988,9.80665
115,110.812,0.988,-0.00028093853205012314,0.0004920408092698924,-0.707511063181121,-0.7067020407620043,0.00037952411055032704,-0.0003150655903727814,-0.0003232830693753104,0.0,-0.0098066499999988,9.80665
116,110.927,0.984,-0.0002839663665652356,0.0004924364786358463,-0.7075075402508497,-0.7067055662155974,0.00036985776304339157,-0.00031949119449297986,-0.00031768880326422017,0.0,-0.0098066499999988,9.80665
117,111.028,0.992,-0.0002859262383591585,0.0004940339720960267,-0.7075042333541722,-0.706708874948464,0.0003571522372918637,-0.0003356961554722732,-0.00031929816037976766,0.0,-0.0098066499999988,9.80665
118,111.1,0.988,-0.00028734849065188483,0.0004950287432100494,-0.707501992062096,-0.7067111175029189,0.0003519546753811878,-0.00034401965297995254,-0.0003176547475122234,0.0,-0.0098066499999988,9.80665
119,111.24,0.988,-0.0002904167681250555,0.0004952265851089769,-0.7074990336395234,-0.7067140778184755,0.00038838085172409486,-0.00032128222076045006,-0.0002808160567101815,0.0,-0.0098066499999988,9.80665
120,111.334,0.984,-0.00029247689728561317,0.0004953594218125425,-0.7074970472700818,-0.7067160654589206,0.00041283842726862023,-0.00030601565912735424,-0.00025608150717166563,0.0,-0.0098066499999988,9.80665
121,111.422,0.986,-0.0002950897312636895,0.0004967685179031566,-0.707494659731727,-0.7067184535276262,0.0003931066254153852,-0.00031185494619421654,-0.00027195619884878353,0.0,-0.0098066499999988,9.80665
122,111.536,0.988,-0.0002985631742310618,0.0004987603698490835,-0.707491498389695,-0.7067216154712648,0.00036202267627231705,-0.0003220274068880829,-0.0002975773564539855,0.0,-0.0098066499999988,9.80665
123,111.652,0.984,-0.0003013556478880186,0.0005002507512157085,-0.7074877522983546,-0.7067253633816434,0.0003559169438751756,-0.00032795432510404263,-0.000302585862234728,0.0,-0.0098066499999988,9.80665
124,111.723,0.982,-0.00030264100937064074,0.0005008565324210385,-0.7074851570692038,-0.7067279604136167,0.00036676050875388336,-0.00032905473041415495,-0.00029361935977143265,0.0,-0.0098066499999988,9.80665
125,111.834,0.992,-0.0003046505181674164,0.00050180359881247,-0.7074810997391231,-0.7067320205621948,0.00038371312426848395,-0.0003307750823778517,-0.0002796013066245897,0.0,-0.0098066499999988,9.80665
126,111.909,0.988,-0.0003080982988483287,0.0004987578838396764,-0.7074786322958411,-0.7067344912194883,0.00039904563734308136,-0.00034231695369817524,-0.00029334680899046614,0.0,-0.0098066499999988,9.80665
127,112.016,0.986,-0.0003133240764130352,0.0004938713828514619,-0.7074751523165578,-0.7067379759764291,0.0004214895627228567,-0.0003603077144362052,-0.0003163667948683748,0.0,-0.0098066499999988,9.80665
128,112.129,0.968,-0.00031740117959865553,0.0004907583586174359,-0.7074717101683213,-0.706741422099699,0.00042881120275705813,-0.00036397285014390694,-0.0003162866199854714,0.0,-0.0098066499999988,9.80665
129,112.201,0.992,-0.00031818593220382196,0.000491349693255266,-0.7074698099169973,-0.7067433235375228,0.00041287630796432506,-0.00034702403005212564,-0.00028556217555888015,0.0,-0.0098066499999988,9.80665
130,112.332,0.984,-0.00031961374597155553,0.0004924255937768738,-0.7074663525152827,-0.7067467830980078,0.00038388365216087555,-0.0003161865934962408,-0.00022966075583826762,0.0,-0.0098066499999988,9.80665
131,112.459,0.988,-0.00032135073071025384,0.0004918566390201323,-0.7074626407866943,-0.7067504981755408,0.00036318638129159665,-0.00033936274051666465,-0.00028232681937516175,0.0,-0.0098066499999988,9.80665
132,112.532,0.988,-0.0003223646206967183,0.0004914589303268076,-0.7074604914952229,-0.7067526494470643,0.0003516143909655507,-0.00035501118726097107,-0.00031728430406656233,0.0,-0.0098066499999988,9.80665
133,112.649,0.992,-0.00032417394931483125,0.0004919974590515393,-0.7074571665324115,-0.7067559765218064,0.00033997359941713483,-0.0003596862021367988,-0.0003255291222594654,0.0,-0.0098066499999988,9.80665
134,112.732,0.992,-0.0003255905064318432,0.0004932280979306985,-0.7074548942439516,-0.7067582495424044,0.00033669926796574127,-0.0003482774802250781,-0.00029689628118648935,0.0,-0.0098066499999988,9.80665
135,112.811,0.99,-0.0003269387957359873,0.000494399428912067,-0.7074527314633693,-0.706760413019841,0.00033358273562043855,-0.0003374185762368125,-0.0002696433360688343,0.0,-0.0098066499999988,9.80665
136,112.926,0.99,-0.00032852877911273973,0.0004954569441982556,-0.7074492843807735,-0.7067638619726114,0.00034175450165488966,-0.00034073602192037135,-0.00028622525605462334,0.0,-0.0098066499999988,9.80665
137,113.04,0.98,-0.0003299745335238882,0.0004962786911396013,-0.7074457627551195,-0.7067673857515862,0.0003543015553447171,-0.0003507158234789679,-0.00032234466688028723,0.0,-0.0098066499999988,9.80665
138,113.115,0.98,-0.00033094246375084624,0.0004969763359094343,-0.7074436102507211,-0.7067695393826593,0.0003616738880518821,-0.00035912897193338665,-0.00033918289153370997,0.0,-0.0098066499999988,9.80665
139,113.235,0.984,-0.00033255183750341,0.0004986605767703494,-0.7074407607785286,-0.7067723896085469,0.000370277967536822,-0.00037927310203667746,-0.0003410752598429098,0.0,-0.0098066499999988,9.80665
140,113.338,0.986,-0.0003339332166410271,0.0005001062168426348,-0.7074383149815632,-0.7067748360524337,0.0003776631357613947,-0.00039656348037533386,-0.0003426995426416396,0.0,-0.0098066499999988,9.80665
141,113.412,0.976,-0.0003368918875598233,0.0004981653608505677,-0.7074367124192695,-0.7067764400522204,0.00033366118790581354,-0.0003852240496780711,-0.0003269224951509369,0.0,-0.0098066499999988,9.80665
142,113.508,0.948,-0.0003408759220197686,0.0004954266216220916,-0.7074346448811385,-0.7067785095273158,0.000272922330070289,-0.0003687519559171057,-0.000305198893183843,0.0,-0.0098066499999988,9.80665
143,113.612,0.984,-0.00034437200943642697,0.0004932790852829231,-0.7074323439019002,-0.7067808124721874,0.00023551473161205336,-0.00034770795959048113,-0.0002913778868969519,0.0,-0.0098066499999988,9.80665
144,113.732,0.994,-0.0003444323530216616,0.0004947722481974154,-0.7074293926016587,-0.706783765397166,0.00032994814449921293,-0.0003079224738758056,-0.0003225007595028729,0.0,-0.0098066499999988,9.80665
145,113.819,0.974,-0.0003444761021209567,0.0004958547913104224,-0.7074272529089836,-0.7067859062677756,0.0003984123688424037,-0.0002790779967326659,-0.00034506484214216564,0.0,-0.0098066499999988,9.80665
146,113.923,0.978,-0.00034524638443841443,0.0004973504052970487,-0.7074244401562526,-0.7067887201219617,0.0004068730689818965,-0.0002944268171668087,-0.00032538809466632065,0.0,-0.0098066499999988,9.80665
147,114.02,0.982,-0.0003461549708207755,0.0004987987283775115,-0.7074217492003936,-0.7067914120239265,0.00039533002427742105,-0.0003219393365580453,-0.00029468105048909823,0.0,-0.0098066499999988,9.80665
148,114.132,0.972,-0.0003472411823639695,0.000500181526222705,-0.7074187186096768,-0.7067944438027776,0.00038663961294655417,-0.00034239697877989873,-0.00027621885636753825,0.0,-0.0098066499999988,9.80665
149,114.251,0.97,-0.0003484691099186924,0.0005010750110038539,-0.7074156507336269,-0.7067975131315934,0.00038662930666994783,-0.00034164131084840084,-0.0002903988685331225,0.0,-0.0098066499999988,9.80665
150,114.335,0.966,-0.00034933588231026135,0.0005017057061434883,-0.7074134851740623,-0.7067996797166399,0.0003866220316511669,-0.00034110789819087297,-0.0003004082888852984,0.0,-0.0098066499999988,9.80665
151,114.412,0.908,-5.347709599136163e-05,-5.7434517141401404e-05,-0.7074243225756055,-0.7067883704849715,-0.002673486094517554,0.003283483308757998,2.3094813438387374e-08,0.0,-0.0098066499999988,9.80665
152,114.532,0.492,0.0004466705636692165,-0.0010025363868950577,-0.7074429007463702,-0.7067689947310394,-0.007845498950614035,0.009409488558409574,0.0005090028282701907,0.0,-0.0098066499999988,9.80665
153,114.658,0.224,0.0008214957607116654,-0.0013305514172070637,-0.707442833974169,-0.7067687623382516,-0.0092422217689455,0.006998371183872416,-0.0005138021416496046,0.0,-0.0072569209999988156,10.400736856999979
154,114.735,0.06041666666666667,0.0009643407944611585,-0.0011500021092390035,-0.7074315674814483,-0.7067801547237464,-0.007782321058213788,0.00045316974818741286,-0.0020319297993554855,0.0,-0.0042364727999988005,11.104501287599962
155,114.852,0.18493150684931506,0.0011364348004816538,-0.0008558611939264811,-0.7074156574309357,-0.7067962913400336,-0.005605434614233668,-0.008808270495384934,-0.003937788586132219,0.0,1.4766433100180835e-15,12.057707667599999
156,114.955,0.5121951219512195,0.0008130140303793602,-0.000387749942112976,-0.7074144248976139,-0.7067980959685022,-0.004126429013907984,-0.009737075403332664,-0.0013803772926331858,0.0,1.4291426136641247e-15,11.669835046800019
157,115.032,0.43902439024390244,0.0005712334546718128,-3.7802695611607244e-05,-0.7074135034892082,-0.7067994450596874,-0.0030207646330819545,-0.010431424703448947,0.0005314738685263439,0.0,1.39363238435097e-15,11.379872019600025
158,115.126,0.42592592592592593,0.0002721326240975643,0.00030140794567695944,-0.707411514615054,-0.7068017280184437,-0.001303507265634803,-0.010284127432852957,0.0016347254817373907,0.0,1.3599524306558184e-15,11.104854326999998
159,115.212,0.6607142857142857,-8.176230644924584e-06,0.00046293081520329936,-0.7074082337743801,-0.7068048922925587,0.0008890794897451937,-0.008466748859733348,0.0005627699489705303,0.0,1.3454927728862573e-15,10.986782261
160,115.332,0.5632183908045977,-0.0003993048651693029,0.0006883115633795734,-0.7074036558571608,-0.7068093075587657,0.003948502869344996,-0.005930871780961961,-0.000932981957215692,0.0,1.3253165062310567e-15,10.822030541000014
161,115.388,0.5666666666666667,-0.0005410544753970503,0.0007053722686281054,-0.7074094059274534,-0.7068034315624745,0.004287588830857754,-0.005227890925998044,-0.0007058478154084735,0.0,1.3176068688248407e-15,10.759076574096383
162,115.553,0.6415094339622641,-0.0009293403662946016,0.0006921752141800687,-0.7074320282073697,-0.7067804022227092,0.004502597831593577,-0.0035026309203850447,0.000629716206353185,0.0,1.2961196657389439e-15,10.583620245783136
163,115.626,0.6190476190476191,-0.0010826012052300344,0.0006801171297909238,-0.7074381741855915,-0.7067740590792931,0.003998706588754332,-0.00292628295160827,0.0008717224225401751,0.0,1.2872842435859983e-15,10.511473548799994
164,115.732,0.5165562913907285,-0.0012742871588859812,0.0006522491667110806,-0.7074406648547406,-0.7067712536804058,0.0022693117498420088,-0.002400774732232091,0.0006420374056324353,0.0,1.2755724011799554e-15,10.415839098
165,115.812,0.6666666666666666,-0.0014189558031546248,0.0006312167417451607,-0.7074425446050417,-0.7067691363982267,0.0009641080978326686,-0.0020041647553443965,0.000468690223060551,0.0,1.2667332748357718e-15,10.343662154
166,115.921,0.6277372262773723,-0.0016041576091666634,0.0005637248453084053,-0.7074540235846164,-0.7067572906009604,0.0014803971899525717,-0.001990978459482541,3.701024985613315e-05,0.0,1.2577486925756516e-15,10.270297472310753
167,116.026,0.5333333333333333,-0.0017782064922449322,0.0004845033593232795,-0.7074683435553408,-0.7067426014778319,0.0028171408414771294,-0.002171129811057937,-0.00045034230549434787,0.0,1.2502127364046358e-15,10.208761720318728
168,116.122,0.6344086021505376,-0.0019081050105264,0.0004185213649380781,-0.7074790263321501,-0.7067316369871512,0.003411969472654196,-0.0019521733541042032,-5.18135493622117e-05,0.0,1.2440109554836038e-15,10.158120336000001
169,116.235,0.5913978494623656,-0.001981511192997271,0.0003583931242198755,-0.7074850475631803,-0.706725435893319,0.0024061092175543673,-0.0006510750800371636,0.002712813671678205,0.0,1.2385825789787517e-15,10.113794278
170,116.298,0.4512820512820513,-0.002022436763755369,0.0003248702997486638,-0.7074884045326927,-0.7067219786463151,0.0018453198717907223,7.431599311528677e-05,0.004254154511727351,0.0,1.2355561389804714e-15,10.08908152
171,116.412,0.4230769230769231,-0.0020456497276827444,0.0002278721675099929,-0.7077647457297958,-0.7064449160054016,0.0018096530660987038,0.0005536833840887985,0.005114043986424795,0.0,1.2314055926971155e-15,10.0551897376
172,116.532,0.4943820224719101,-0.002035180881397314,0.00010082302382935252,-0.7082411689675991,-0.7059673626510224,0.0024442565664648634,0.00048625888000242867,0.0046947948243469245,0.0,1.2279468041276525e-15,10.026946585600003
173,116.611,0.48036253776435045,-0.00202726602877454,2.2384206765629054e-05,-0.7084831582546475,-0.7057248058314085,0.002774940566215002,0.0005084951300074634,0.004021443027207839,0.0,1.225846809078215e-15,10.009798824703557
174,116.745,0.45664739884393063,-0.002007961176627746,-8.076231079868e-05,-0.7084817250092457,-0.7057262907662705,0.002835195058802136,0.0009291834617125661,0.0005952605053693872,0.0,1.2233024652688822e-15,9.98902268083004
175,116.852,0.49279538904899134,-0.0019912272691522746,-0.00016328619259512464,-0.7084794028481167,-0.7057286609298903,0.002782987611677479,0.0012808146849764817,-0.0019201855354297594,0.0,1.2212971936380177e-15,9.972648395344129
176,116.932,0.45073891625615764,-0.001962117464685913,-0.00022700777336412528,-0.7084628444594904,-0.705745339885512,0.0014813456548611879,0.0017414179103644972,-0.0010271840191518047,0.0,1.2201302609222744e-15,9.96311966659919
177,117.052,0.5224215246636771,-0.0019184527579863685,-0.0003225901445176319,-0.7084380068765509,-0.7057703583189446,-0.0004711172803633641,0.002432322748446561,0.00031231825526520677,0.0,1.2183798618486594e-15,9.948826573481782
178,117.132,0.5415778251599147,-0.0018474395950128356,-0.00036734504881379956,-0.7084289187358079,-0.7057796407540284,-0.0012331818160600996,0.0025170998312532846,0.0011480451445095381,0.0,1.2174071067368157e-15,9.940883425200001
179,117.223,0.6030701754385965,-0.0017165526892489612,-0.000395572768501929,-0.7084275141471398,-0.7057813545181264,-0.001454785559326399,0.0021641083341092052,0.002030193572863892,0.0,1.2165328018484235e-15,9.933744184
180,117.302,0.6879120879120879,-0.0016029255952341507,-0.00042007815152789147,-0.7084262947789554,-0.7057828422913544,-0.0016471668309532184,0.0018576651662588,0.0027960147359408745,0.0,1.2157737899123468e-15,9.9275463812
181,117.422,0.7120879120879121,-0.0014278804339361243,-0.0004177536990073387,-0.7084106905928729,-0.7057988732284814,-0.002135684406384794,0.0018458569999784112,0.0015794521886856687,0.0,1.2146208603891927e-15,9.918131997200001
182,117.532,0.6852248394004282,-0.0012662582167156113,-0.000396808534794763,-0.7083898444101224,-0.7058201196611649,-0.0026768762338906177,0.0020508635248988735,-0.0006679091285912743,0.0,1.213564008326301e-15,9.9095021452
183,117.621,0.6540084388185654,-0.0011366981154909313,-0.00038746347102756884,-0.7083793299618795,-0.7058309074923307,-0.002800904652103835,0.002059478444978626,-0.0014293339569123058,0.0,1.2127089189299616e-15,9.9025198104
184,117.732,0.6884531590413944,-0.0009783913612203844,-0.00039646232761391157,-0.7083834754457616,-0.7058269658763681,-0.0021028452762402857,0.001642948897555486,0.0004927070578559501,0.0,1.2116424591210437e-15,9.8938115052
185,117.824,0.6455981941309256,-0.0008471821594826405,-0.00040392083937916827,-0.7083869113423126,-0.7058236989514259,-0.0015242735412903474,0.0012977172005921808,0.002085750061087216,0.0,1.2107585464866254e-15,9.8865938108
186,117.918,0.6594202898550725,-0.0007785361623950411,-0.00038434755093151146,-0.7083971705666119,-0.705813494769548,-0.0013605449930764717,0.0007999997353181083,0.0025067173177376425,0.0,1.2040907707443822e-15,9.832147289999998
187,118.019,0.6781002638522428,-0.0007225842570612515,-0.00035591452479627234,-0.7084100307443957,-0.7058006617218601,-0.0013009672379121172,0.0002257546540349615,0.002630569234490397,0.0,1.1953573296064876e-15,9.760833331199999
188,118.116,0.66189111747851,-0.0006883962889159671,-0.00032608322073564825,-0.708419110957993,-0.7057915993768566,-0.0011210377431707685,-0.00029139994503928556,0.0025623592818156153,0.0,1.1865278110083309e-15,9.688734840400002
189,118.234,0.6590257879656161,-0.0007233165786357917,-0.00027991348436818056,-0.708417355862532,-0.7057933441657758,-0.0004218699600315247,-0.00078607943793755,0.001746861583553316,0.0,1.1740569566662112e-15,9.586902586800008
190,118.34,0.6851851851851852,-0.0007546856524519094,-0.0002384389754279077,-0.7084157792513551,-0.7057949115185337,0.00020619601465295925,-0.001230452541727572,0.0010142958546057353,0.0,1.1628543247995599e-15,9.4954261556
191,118.433,0.6719745222929936,-0.0008073276459224568,-0.00021047357090283648,-0.7084160403465637,-0.7057945959444617,0.0008199409069493639,-0.0016108954045921703,0.0007371531729586328,0.0,1.1525932520434853e-15,9.411638137999997
192,118.532,0.6826568265682657,-0.0008642572543665303,-0.0001810028134677425,-0.7084163766344712,-0.7057942000180383,0.0014755072911502326,-0.002015548296738387,0.0004551025147084349,0.0,1.1416548331925588e-15,9.322319169800005
193,118.629,0.7125506072874493,-0.0009329877671289162,-0.00017489084356363388,-0.708415255157682,-0.7057952377225649,0.0019143882831558598,-0.002194561425596473,0.0002820418863557282,0.0,1.1304185742148156e-15,9.230568152399998
194,118.726,0.7206477732793523,-0.0010236630255165433,-0.0002073502220019962,-0.70841167509114,-0.7057986910820535,0.0020085487407632127,-0.002005092265550056,0.0002840038759168239,0.0,1.1183032064756687e-15,9.131638667200004
195,118.812,0.6834532374100719,-0.001104055522643721,-0.000236128639998896,-0.7084085010115255,-0.7058017528234557,0.0020920312083326223,-0.0018371092989109571,0.0002857433718163521,0.0,1.1075617464182805e-15,9.043927989600007
196,118.932,0.7338403041825095,-0.0012640408175683974,-0.00022356650869092821,-0.7084076681343617,-0.7058023064208446,0.0018442951873746227,-0.002244236791855202,-8.458078772097564e-05,0.0,1.0904887434516953e-15,8.904516340637448
197,119.052,0.688212927756654,-0.0014406789354557202,-0.00019264190586276914,-0.7084080878213014,-0.7058015647755659,0.0014696949109642523,-0.0028748158829294697,-0.0005847396917151842,0.0,1.072689532685864e-15,8.759174754980066
198,119.114,0.7171314741035857,-0.001521213791416252,-0.00017212806615799804,-0.7084106398079323,-0.7057988498469999,0.0012606920581310589,-0.0030679518450051407,-0.0006941394112072545,0.0,1.0654029568549332e-15,8.699675347999996
199,119.223,0.7258064516129032,-0.0016231915465311389,-0.00011931631966171858,-0.7084237475822333,-0.7057854681746849,0.0008361765374429334,-0.0029177132220938734,-0.0003363147730706096,0.0,1.0596431131121746e-15,8.652642654599997
200,119.323,0.7004048582995951,-0.0017167491200310342,-7.086517608715065e-05,-0.7084357730632432,-0.7057731914110932,0.00044671275699511485,-0.002779879623092712,-8.035288541580047e-06,0.0,1.0543588527977171e-15,8.609493394600001
201,119.415,0.7352941176470589,-0.0017765984578849035,-4.6231134266384806e-05,-0.7084328534985941,-0.7057759764226808,0.0010272262417712452,-0.0021670059864408267,-0.00021424444636800358,0.0,1.0512027082280816e-15,8.583721518399997
202,119.525,0.7563025210084033,-0.0018388836299423267,-2.3829399284535006e-05,-0.708424417713767,-0.7057842855003373,0.002053326194640357,-0.0012623279034159123,-0.0006405298471218423,0.0,1.0480321520394068e-15,8.557831962399996
203,119.628,0.7738095238095238,-0.00186249749932914,-9.270522680891228e-06,-0.7084188149335832,-0.7057898498452343,0.0022359413700177447,-0.00036129591241473006,-7.951232045874212e-05,0.0,1.0497999773082447e-15,8.572267351200004
204,119.733,0.8059071729957806,-0.001814765980575599,-7.70516042725233e-06,-0.7084178537437305,-0.7057909377906725,0.0008121742890215054,0.0006687914631330463,0.0024788272948938067,0.0,1.0614013306349863e-15,8.666999590200009
205,119.821,0.8270042194092827,-0.0017747624220012072,-6.39323777658368e-06,-0.708417048175092,-0.7057918495925636,-0.0003810781217180718,0.0015321027874015659,0.00462295954395095,0.0,1.0711243696135879e-15,8.746394228600003
206,120.015,0.7966804979253111,-0.0016296681821428528,-6.0156152948041464e-05,-0.7084134018469832,-0.7057958507297016,2.077076036951413e-05,0.0018531266553327482,0.003654728254303278,0.0,1.0950236378539764e-15,8.941546563600006
207,120.018,0.7991967871485943,-0.0016273060985582586,-6.110537758042856e-05,-0.7084133415701102,-0.7057959167441803,3.329219319860412e-05,0.0018548000883311076,0.003627910193055809,0.0,1.0953983399490016e-15,8.944606238400008
208,120.126,0.82421875,-0.0015416273105918936,-8.634077800196043e-05,-0.7084140598785924,-0.7057953889558795,0.0003669815442990567,0.0017800740543752521,0.0026013228148220806,0.0,1.1082727196242262e-15,9.04973352640001
209,120.231,0.7936507936507936,-0.0014568419855466596,-9.024013806794289e-05,-0.7084214273433665,-0.7057881696969838,0.00042105562367942206,0.0013957751374691712,0.0014620843211887353,0.0,1.1193696662845862e-15,9.140346972400001
210,120.316,0.8423236514522822,-0.0013882062462243143,-9.339676288326264e-05,-0.7084273914815171,-0.7057823255350205,0.0004648298784159167,0.0010846760142594269,0.000539843635866327,0.0,1.128352908819165e-15,9.213700714400007
211,120.431,0.8506224066390041,-0.0013060080802141877,-8.033782336683737e-05,-0.70843589396858,-0.7057739474098395,1.565227168610423e-05,0.0005534835640573714,0.0017567308681319112,0.0,1.1388349597338432e-15,9.299293155600003
212,120.554,0.9054054054054054,-0.0012217619220789872,-6.040508117506145e-05,-0.7084451371072482,-0.7057648242178223,-0.0006397784803994424,-5.262754973959344e-05,0.003906663651578267,0.0,1.1494707345849432e-15,9.386140848000005
213,120.617,0.8873873873873874,-0.0011910852667460818,-5.4408898546881016e-05,-0.7084442711999455,-0.7057657490652414,-0.0005731917347292089,-0.00021322276769204234,0.004366254547610771,0.0,1.154255392106034e-15,9.425210541600006
214,120.718,0.8841201716738197,-0.0011766838491658288,-5.6543116173203866e-05,-0.7084272689211747,-0.7057828388762121,0.0006552096013912217,-5.2878297166883485e-05,0.0033142111599444362,0.0,1.1600776861979635e-15,9.472753180800003
215,120.812,0.871244635193133,-0.0011632805496356931,-5.8529417726415126e-05,-0.7084114450181603,-0.7057987442448382,0.0017984742112458181,9.635319025256325e-05,0.002335081670433246,0.0,1.165496454956789e-15,9.5170007856
216,120.972,0.9017094017094017,-0.001085777187239242,-6.537808027917482e-05,-0.7084033878245486,-0.7058069508093817,0.001397333171218633,-0.0003666788840200755,0.0008636690266430368,0.0,1.1734900996506593e-15,9.582273848
217,121.019,0.8951965065502183,-0.0010589943338005555,-6.764453586611543e-05,-0.7084024073116462,-0.7058079759862217,0.0011071311193517638,-0.000555352409719535,0.00044577588269011244,0.0,1.1757479199668373e-15,9.600710350000004
218,121.148,0.9388646288209607,-0.0010192554462925365,-5.2392408653563445e-05,-0.7084018073790467,-0.7058086400319421,0.0005323485271073835,-0.0007040081387385669,-0.0003933554585091834,0.0,1.180647870440243e-15,9.640721482
219,121.226,0.9353448275862069,-0.001023588358432748,-2.513745847830226e-05,-0.7084032008572066,-0.7058072362128315,0.00037101244367658055,-0.0004838472944684186,-0.0006422051845584224,0.0,1.1825213809153688e-15,9.656019856
220,121.33,0.9098712446351931,-0.0010293655746196966,1.1202475088710999e-05,-0.7084050588280866,-0.7058053644540172,0.00015589766576885308,-0.00019029950210823433,-0.0009740048192907259,0.0,1.1850193948822033e-15,9.676417688
221,121.447,0.8798283261802575,-0.001019860983611566,-9.019757037558464e-06,-0.7084136748280906,-0.7057967298564609,-0.00025567496438553617,-0.0008980579932321609,0.0006097066038509599,0.0,1.1873428102515722e-15,9.695389814257029
222,121.492,0.9142857142857143,-0.001015368719597766,-1.999195686001434e-05,-0.7084173298279379,-0.7057930675423729,-0.0004228368014879102,-0.0012245371612350248,0.0013211333430391626,0.0,1.1882109800732247e-15,9.702478958835341
223,121.605,0.8851063829787233,-0.0010036248925376545,-4.15241216328433e-05,-0.7084237181596487,-0.705786671878623,-0.000802287249825895,-0.0018424983878503481,0.0026918103685602416,0.0,1.1903396842442596e-15,9.7198611475
224,121.701,0.9148936170212766,-0.0009903353721267684,-1.676949633672473e-05,-0.7084091972605202,-0.7058012654526926,-0.0008364071836695047,-0.000924073361966368,0.0008831642335282255,0.0,1.1917808461482025e-15,9.7316291275
225,121.852,0.9218106995884774,-0.0009666213182892904,1.8232408590791363e-05,-0.7083886336733376,-0.7058219383055784,-0.0008310336368122764,0.00041633883865733643,-0.0014347204656823135,0.0,1.1938495368837288e-15,9.74852126927481
226,121.932,0.8823529411764706,-0.0009437119992471641,2.2292598676466002e-05,-0.7083861185117337,-0.7058244927836422,-0.0006108717172662451,0.0007429821651121604,-0.0007231257858557863,0.0,1.1942162447473276e-15,9.751515666221374
227,122.052,0.9545454545454546,-0.0009093480206839728,2.838288380497832e-05,-0.7083823457693279,-0.7058283245007381,-0.00028062883794717866,0.0012329471547944254,0.00034426623388406747,0.0,1.1947663065427257e-15,9.756007261641223
228,122.132,0.9045454545454545,-0.0008982018008842719,1.647849672476055e-05,-0.7083832762536252,-0.7058274050189068,0.00029838742502041356,0.0009378896588458829,0.0006127857835963177,0.0,1.1954966419238689e-15,9.761970902600002
229,122.227,0.9170506912442397,-0.0009011995366306716,-1.9690158109568586e-05,-0.7083891364278857,-0.7058215188348498,0.001481212478131118,-0.0002704802593216937,0.0003201791318133319,0.0,1.1968657457326148e-15,9.7731504836
230,122.332,0.9308755760368663,-0.0009045128235082709,-5.966603976856053e-05,-0.7083956134625948,-0.7058150130524711,0.0027885454315691536,-0.0016060470109804798,-3.228220157308918e-06,0.0,1.1983789657317548e-15,9.785506862599998
231,122.412,0.9493087557603687,-0.0009223394832316916,-3.449697950658328e-05,-0.7084074089035884,-0.7058031504027449,0.0022838758969116746,-0.0015501271287698946,0.00025979853773202915,0.0,1.1985663167792674e-15,9.7870367
232,122.532,0.9308755760368663,-0.0009535331129383017,1.944652222602511e-05,-0.7084270987944732,-0.7057833465127605,0.0010900911713897128,-0.001153812324442731,0.000802606301552838,0.0,1.1985663167792674e-15,9.7870367
233,122.618,0.8935185185185185,-0.0009720983034587759,5.2814478587211114e-05,-0.708437527798939,-0.7057728538178162,0.00044265402116692976,-0.0008563736168247381,0.001005538111654021,0.0,1.1985663167792674e-15,9.7870367
234,122.772,0.8657407407407407,-0.0009855984195307344,8.500109998041787e-05,-0.70843702190423,-0.7057733394758139,0.0003673902782235973,-0.00025387793298687136,0.0003995784640972791,0.0,1.1985663167792674e-15,9.7870367
235,122.841,0.8923766816143498,-0.0009916471728357015,9.942237839685124e-05,-0.70843679523712,-0.7057735570758259,0.0003336682115801641,1.6071431849511543e-05,0.00012807706356867342,0.0,1.1985663167792674e-15,9.7870367
236,122.893,0.9259259259259259,-0.0010042922077013337,9.377503028164187e-05,-0.7084349219545387,-0.7057754197589163,0.00045939985838018907,-0.00019576319074075268,0.0001592517505071558,0.0,1.1990352207187974e-15,9.79086559123506
237,123.052,0.9814814814814815,-0.0010444706821717176,7.34153716077006e-05,-0.708428875322481,-0.7057814332759172,0.0008721438166268202,-0.0009212300619222174,0.0002987145302924906,0.0,1.2005567661552313e-15,9.803289952589642
238,123.13,0.9223744292237442,-0.0010653134919493,5.5602982477700995e-05,-0.7084241247534625,-0.7057861714583926,0.0010292985406704202,-0.0010951976059004687,0.00036987297411542074,0.0,1.2009682532858392e-15,9.80665
239,123.255,0.9027777777777778,-0.0011009453956422382,1.1651847062363063e-05,-0.7084129986237352,-0.7057972853349095,0.001191913341172035,-0.0010158122517168542,0.0004893090261612056,0.0,1.2009682532858392e-15,9.80665
240,123.33,0.9027777777777778,-0.001122324537858002,-1.4718834186840701e-05,-0.7084063229458988,-0.7058039536608196,0.0012894822214730077,-0.0009681810392066839,0.0005609706573886792,0.0,1.2009682532858392e-15,9.80665
241,123.431,0.9400921658986175,-0.0011249897534717002,-3.3746063268589984e-05,-0.7084100255967102,-0.7058002326654186,0.0016659357585012851,-0.00042348331399262855,0.0008077296148985585,0.0,1.2009682532858392e-15,9.80665
242,123.558,0.9032258064516129,-0.001122611290339831,-5.405586314827075e-05,-0.7084174651184556,-0.7057927682247902,0.002193044475279782,0.000366828061640313,0.0011509642913006463,0.0,1.2009682532858392e-15,9.80665
243,123.636,0.9279279279279279,-0.0011178721754039988,-6.540583304779111e-05,-0.7084235743146171,-0.7057866427232015,0.0023348333137109883,0.0006379050272516876,0.0015161132868379149,0.0,1.2009682532858392e-15,9.80665
244,123.732,0.9054054054054054,-0.0011083982003217488,-7.812686701021767e-05,-0.708432803839941,-0.7057773920179475,0.0023072549300268293,0.0007335040974430747,0.0021369558032602104,0.0,1.2009682532858392e-15,9.80665
245,123.859,0.890295358649789,-0.0010926010816212054,-9.250556942115473e-05,-0.708441966781072,-0.7057682175480091,0.0020907314810902434,0.0008012882363982636,0.002663543314673068,0.0,1.2009682532858392e-15,9.80665
246,123.944,0.9563318777292577,-0.0010643964998269778,-8.889298048078458e-05,-0.7084316394067354,-0.7057786262900221,0.0009732158798723919,0.0005296286416705579,0.0014237826918251264,0.0,1.2009682532858392e-15,9.80665
247,124.031,0.9344978165938864,-0.001035528280814064,-8.519538944770005e-05,-0.7084210690353556,-0.7057892799436118,-0.00017059420607993354,0.0002515770564786864,0.00015485123079259826,0.0,1.2009682532858392e-15,9.80665
248,124.115,0.8917748917748918,-0.0009371731727348409,-1.1348851271084548e-06,-0.7084134639086211,-0.7057969547798635,-0.004066682020201671,-0.00011309479130428836,-0.0009109402401372527,0.0,1.201064330746102e-15,9.807434531999998
249,124.229,0.9090909090909091,-0.0004975964853717772,0.0004625056077892351,-0.7084144373469167,-0.7057960294748942,-0.021478268545121006,-0.0010258252630010276,-0.001665190739557149,0.0,1.2016119722696004e-15,9.811906364399999
250,124.316,0.8208333333333333,-0.00016213006606838657,0.0008163365102780237,-0.7084151802340369,-0.7057953233211018,-0.03476605826150681,-0.0017223827282432762,-0.002240802962798649,0.0,1.2020299092217437e-15,9.8153190786
251,124.452,0.7662337662337663,0.003423956333108188,0.004641246240594632,-0.7083811188479145,-0.7057821388084046,-0.07910771140456174,-0.003507131787016978,-0.0011677703112363891,0.0,1.2011411927143122e-15,9.8080621576
252,124.558,0.670995670995671,0.0068657508330835625,0.00831356779379395,-0.7083471304777537,-0.7057693107001937,-0.1186470883190662,-0.0050451850872488,8.53115543724063e-05,0.0,1.200122771635526e-15,9.799746118399998
253,124.612,0.6428571428571429,0.00892542853153478,0.010519432479486132,-0.7083134624528914,-0.7057477649536282,-0.13271310365200037,-0.005560323171317582,0.000639727240428301,0.0,1.1996039533501066e-15,9.7955096456
254,124.716,0.6401515151515151,0.014176184198475505,0.01617223989256397,-0.7081800722987833,-0.7056433488882891,-0.1343314336538314,-0.005427389286458499,0.0013556093182414439,0.0,1.1986047477633728e-15,9.7873505128
255,124.847,0.5533333333333333,0.02075571376985437,0.02325512221295348,-0.7080117547484331,-0.7055115659657646,-0.13579072919025018,-0.005235089418623082,0.002226679447428011,0.0,1.1973749179941352e-15,9.77730819063745
256,124.919,0.5467836257309941,0.023152342596481593,0.02581929318607157,-0.707908706355811,-0.7054299596725291,-0.1160607095733591,-0.004248303419676659,0.001618315931177723,0.0,1.1977194188476675e-15,9.780121253585657
257,125.006,0.5156626506024097,0.02604826909532282,0.028917666445255934,-0.7077841895480593,-0.705331352068203,-0.09222026920294904,-0.0030559370042830642,0.0008832100157086251,0.0,1.1981356907123522e-15,9.78352037131474
258,125.132,0.5511627906976744,0.029665822194575652,0.03279127656406587,-0.7076170385702613,-0.705207652094998,-0.06376999294757829,-0.0019318162640556734,-0.0003166756907012478,0.0,1.1987392562077407e-15,9.7884488576
259,125.246,0.6157407407407407,0.03163475123680994,0.03490786517170461,-0.7074956270280304,-0.705138960423906,-0.051775445789099636,-0.002278128499165152,-0.0017082081758416146,0.0,1.199286897731239e-15,9.792920689999999
260,125.341,0.6361556064073226,0.03327552543867198,0.0366716890114037,-0.707394450742838,-0.7050817173646626,-0.041779989823700014,-0.0025667220284230716,-0.0028678185801253404,0.0,1.1997432656674876e-15,9.796647216999999
261,125.42,0.7041942604856513,0.034208168544800584,0.03759961023046719,-0.7073372380956534,-0.7050436978343989,-0.03415564820170422,-0.0015984340689101642,-0.0023760441463309837,0.0,1.2001144399182688e-15,9.799678084765624
262,125.532,0.6952595936794582,0.03548903470357208,0.03886352778674059,-0.7072587055428317,-0.7049907146638684,-0.023412328213453994,-0.00010992819898102179,-0.001539363946903959,0.0,1.2006398635290812e-15,9.803968494140625
263,125.594,0.7471783295711061,0.03619808561289203,0.03956319643396337,-0.7072152321653767,-0.7049613846944676,-0.01746513321995829,0.0007140661218726172,-0.0010762016936497097,0.0,1.2009307230279239e-15,9.806343542187498
264,125.735,0.6997840172786177,0.036026842857749417,0.03928305444174939,-0.707214097372471,-0.7049872026008813,0.004330788433673249,0.0010036289797843846,-0.001349714691044569,0.0,1.2016228794239007e-15,9.81199542807377
265,125.832,0.7219827586206896,0.0358352254147394,0.03901289717623637,-0.707217360857357,-0.7050087923347435,0.01966739400121851,0.001137270919451873,-0.0015927805502318573,0.0,1.2021003135245922e-15,9.815893973360655
266,125.945,0.6733333333333333,0.03520901058304749,0.03825454172588348,-0.7072627558729978,-0.7050354388917672,0.0156678365450359,0.0010388570241630201,-0.0007195599006955542,0.0,1.202169221539125e-15,9.81645665
267,126.018,0.7297297297297297,0.03476764911304281,0.03772410184057729,-0.7072958816487137,-0.7050527896740518,0.011086468510329909,0.0009520663488656318,-4.9801624380079465e-05,0.0,1.202169221539125e-15,9.81645665
268,126.146,0.7815315315315315,0.033963252773640866,0.03732869409570488,-0.713475877796752,-0.6986328334394358,0.006043479871004828,-0.01131101120263267,0.1555741921532811,0.0,1.2019290278884678e-15,9.814495319999999
269,126.274,0.7034632034632035,0.03311127291642291,0.03776738501263882,-0.7292060575947044,-0.682150285147221,0.005665039490908392,-0.04246708751469777,0.5521395979691213,0.0,1.2013141321427855e-15,9.8094743152
270,126.35,0.6139240506329114,0.032664527780273823,0.037980997386273016,-0.739196479701366,-0.6714739667816046,0.005352742401883238,-0.058886444374921416,0.7782515897750784,-0.00015690639999963433,-0.00015690639999843336,9.8064930936
271,126.449,0.5400410677618069,0.033468742735292455,0.03716050352452742,-0.7674658299666832,-0.6367030642382041,0.002891989115160097,-0.031514526758344416,0.8535893778800921,-0.004040339799999781,-0.00404033979999858,9.8026096602
272,126.532,0.48254620123203285,0.03414298355616663,0.03647261473134681,-0.7911663963507358,-0.6075517014997992,0.0008289333293216216,-0.008566353403033689,0.9167513618469184,-0.007296147599999719,-0.007296147599998518,9.7993538524
273,126.655,0.4695121951219512,0.03641159646678681,0.034481191257882265,-0.8252208138583127,-0.560039439988779,-0.0015074539096094353,0.0150365144871174,0.9808879666328424,-0.00980665,-0.0098066499999988,9.7922146112
274,126.747,0.25164113785557984,0.03913840843987002,0.03220301677776635,-0.8498257959327545,-0.5210032126874913,-0.002670080107171041,0.024248818855732428,1.004953588962554,-0.00980665,-0.009806649999998801,9.7849969168
275,126.84,0.3096446700507614,0.04189485967353036,0.02990007953156211,-0.8746982234645284,-0.4815426785677094,-0.0038453435460105508,0.03356125696748505,1.0292807941436768,-0.00980665,-0.009806649999998803,9.7777007692
276,126.922,0.3442028985507246,0.04413522743808646,0.02748844904013029,-0.8929937102741293,-0.44297752002191193,-0.0018770158626140935,0.02992277425527622,1.038786007881164,-0.012787871599999742,-0.012787871599998545,9.774248828400001
277,127.023,0.23563218390804597,0.04687622417901441,0.024480969521904348,-0.9151749237034357,-0.3951097426387606,0.0008395534036679036,0.024288987383246967,1.0493321576118462,-0.016749758199999708,-0.016749758199998507,9.7702869418
278,127.132,0.03076923076923077,0.049412889592088366,0.02113288653835069,-0.9368942450999431,-0.3422949832367194,0.0034810216445476075,0.01837244576960808,1.0583780212402345,-0.0196133,-0.016788984799998696,9.7674234
279,127.234,0.23529411764705882,0.050986944969573324,0.01780553274191087,-0.9530084183211139,-0.29067942191526275,0.005402042288333008,0.013146088603884571,1.0624109849929806,-0.0196133,-0.008786758399999508,9.7674234
280,127.332,0.3333333333333333,0.05249927268519627,0.01460866340807624,-0.9684906631806716,-0.2410880002534665,0.007247728789225032,0.008124686621130157,1.066285793304443,-0.0196133,-0.0010983447999995885,9.7674234
281,127.413,0.8333333333333334,0.05280736130902635,0.011816996787656539,-0.9767321955388794,-0.19902016237882741,0.010770372865721245,-0.0009316311795254549,1.0658813099861146,-0.0196133,1.1961643802726959e-15,9.7674234
282,127.55,0.625,0.05299556619860538,0.007042503844699031,-0.9890617520117171,-0.12748704563232113,0.017434246253221913,-0.01798296742513682,1.0639223585128785,-0.0196133,1.1961643802726959e-15,9.7674234
283,127.621,0.6176470588235294,0.0525453823856423,0.0044213058089534255,-0.9937498196963447,-0.09496834268044059,0.02208651521478713,-0.026398534845395227,0.9973931097122772,-0.020597903413654303,0.0009846034136554976,9.769392606827308
284,127.722,0.5723684210526315,0.05047134053543591,0.0003082479965058364,-0.9959646147852155,-0.06062719455171178,0.03184216189007375,-0.03726735183722199,0.7312722550817468,-0.024575701204819,0.004962401204820196,9.777348202409637
285,127.845,0.7142857142857143,0.04794552719310523,-0.004700723398851363,-0.998661840487504,-0.018805796335535137,0.04372280091047287,-0.05050363391637797,0.4071844816207886,-0.02941995,0.009806650000001197,9.7870367
286,127.93,0.6285714285714286,0.04552338746681368,-0.005939742365903667,-0.9987955240925745,-0.008319251446921461,0.0276341203818207,-0.05192264540505319,0.32259863792430316,-0.026112151388888706,0.013114448611112495,9.793652297222222
287,128.003,0.6853146853146853,0.043443196878352325,-0.007003841008195242,-0.9989103347181056,0.0006868400456492146,0.013816782986630562,-0.05314132586003261,0.2499543251026433,-0.02327133611111185,0.015955263888889352,9.799333927777775
288,128.103,0.7251908396946565,0.040605992493141806,-0.008344585200210409,-0.9990587863237358,0.012583610398017328,-0.004352103300392642,-0.054619607955217336,0.1541330458521842,-0.0196133,0.0196133000000012,9.806885359599999
289,128.212,0.7022900763358778,0.03772470819238042,-0.007809304028839447,-0.9990699273210111,0.018031528801818443,-0.011195457717402556,-0.052966846972704214,0.11272599145770806,-0.0196133,0.0196133000000012,9.811161058999998
290,128.286,0.7906976744186046,0.035768606923972934,-0.007445902132679219,-0.9990774909338401,0.02173011560807002,-0.015841404752805387,-0.051844789057970145,0.08461478021741181,-0.0196133,0.0196133000000012,9.814063827399998
291,128.42,0.7441860465116279,0.032482362453845316,-0.006454668218423688,-0.9990966557571236,0.02636400824268755,-0.02003632982820262,-0.048339353099466104,0.052146711088719655,-0.01674975820000082,0.0196133000000012,9.813593108200001
292,128.542,0.7424242424242424,0.029685081921296184,-0.005298721741808144,-0.999118264720087,0.029013008556128865,-0.02064659375697371,-0.04402674280107045,0.036612076871097965,-0.011964113000000267,0.0196133000000012,9.808807462999999
293,128.617,0.7291666666666666,0.028023546716593323,-0.00460817661074231,-0.9991326702278718,0.03040904168168015,-0.020639127269387502,-0.04177380532026318,0.028423471674324165,-0.010591181999999286,0.0196133000000012,9.80665
294,128.745,0.7708333333333334,0.02546056359876537,-0.0035238776060893353,-0.9991625183058652,0.031700636387411746,-0.018830580249428804,-0.03979794663190847,0.020837638124823803,-0.015612186799999848,0.0196133000000012,9.80665
295,128.82,0.7231638418079096,0.02395881567816345,-0.0028885461580506503,-0.9991800074140644,0.03245743016030116,-0.017770884729922033,-0.038640216931700944,0.01639281377941461,-0.018554181799999403,0.0196133000000012,9.80665
296,128.922,0.7484662576687117,0.022110433505193847,-0.0021508916525357635,-0.99920266784242,0.033100085724860825,-0.01664755539968621,-0.03620429188013107,0.01229580417275467,-0.022555294999999555,0.0196133000000012,9.809591994999998
297,129.011,0.7423312883435583,0.02055856670495131,-0.0015469552339270028,-0.9992220868703792,0.03353940136169311,-0.015767239853739866,-0.03380824294686352,0.009332848399877976,-0.0260464623999995,0.0196133000000012,9.813083162399998
298,129.134,0.7126436781609196,0.018391995258887635,-0.0007250996008417043,-0.9992472390336989,0.034114675150944254,-0.013714855229436919,-0.030983098511919327,0.006932823317758273,-0.02941995,0.017825881034485062,9.814669231034483
299,129.237,0.7045454545454546,0.01653517037898503,-6.178900489358567e-05,-0.9992650210353659,0.03453437661313838,-0.010369463566819651,-0.029563755182356887,0.008221870480940066,-0.02941995,0.012850093103450234,9.809693443103448
300,129.356,0.7485380116959064,0.014837410306980651,0.000529457758066997,-0.9992804309202862,0.034880590487764686,-0.00810787799088542,-0.02745601041494223,0.007935909560655315,-0.02941995,0.009806650000001202,9.804794687837838
301,129.413,0.7365269461077845,0.014265341784267716,0.0007183033536446841,-0.9992850453908794,0.034971692032007395,-0.00788865686469786,-0.026194271921003938,0.006842316473626512,-0.02941995,0.009806650000001202,9.802906245101351
302,129.535,0.7577639751552795,0.013040914419865088,0.0011224991897932541,-0.9992949219770612,0.03516668130214085,-0.00741944673496327,-0.02349370882871605,0.004501643550513179,-0.02941995,0.0098066500000012,9.798864315033784
303,129.615,0.782608695652174,0.012260291818178759,0.0013609479508033982,-0.999300982851125,0.03528471520402002,-0.006741606185130982,-0.02161748659800709,0.0032535267574526927,-0.02941995,0.010548986055778291,9.79684335
304,129.72,0.7901234567901234,0.01132961094734167,0.001561834188080176,-0.999307186588081,0.03539822167850967,-0.004292146926115162,-0.018710972288571704,0.0028236880833543113,-0.02941995,0.01465136952191327,9.79684335
305,129.821,0.7658227848101266,0.010434384585869726,0.0017550676163178556,-0.9993131539922007,0.035507404096828295,-0.0019360004007759274,-0.015915182333781225,0.0024102242158882126,-0.02941995,0.01859747171314822,9.79684335
306,129.932,0.7974683544303798,0.009608017032079263,0.0018584910138857817,-0.9993196217216956,0.035550390364097614,-0.002282495284452805,-0.01415090311318661,0.001300989977317174,-0.02941995,0.016279039000002,9.800177610999999
307,130.053,0.8356164383561644,0.008759717003927407,0.0019349062703146512,-0.9993266419510254,0.03557157234246312,-0.0036391581781207265,-0.012663925692439217,-0.0001265224632805745,-0.02941995,0.011532620400001638,9.804924029599999
308,130.132,0.8142857142857143,0.008283514663680646,0.0019438369544182122,-0.9993312008530123,0.0355611604700595,-0.003610508068816501,-0.011555005609175802,-0.000789279434890948,-0.02941995,0.008307817030568935,9.80665
309,130.235,0.8285714285714286,0.007789910404197555,0.0018883444334847862,-0.999337104493187,0.0355078523492286,-0.002074389403795521,-0.009882871175436764,-0.0012120548201070688,-0.02941995,0.0038969657205246075,9.80665
310,130.399,0.8835616438356164,0.007165016591892119,0.0018009874314761011,-0.999345941766623,0.03539768591214951,-1.961230068392081e-05,-0.00752880955218055,-0.001770083538198171,-0.026778306273062605,0.005283287453875989,9.804008356273062
311,130.423,0.7945205479452054,0.007102946396213403,0.0017883859095653553,-0.9993471323757188,0.035376950907951496,0.0002097434426977751,-0.007240566603729389,-0.00183074393849202,-0.025909820664206534,0.0070202586715881355,9.803139870664205
312,130.549,0.8972602739726028,0.006777077868900144,0.0017222279195339397,-0.9993533830734723,0.03526809213591195,0.0014138610954516789,-0.0057272911243607975,-0.0021492110400347267,-0.021350271217712147,0.016139357564576903,9.798580321217711
313,130.678,0.8926174496644296,0.006558071931371531,0.001595648423170876,-0.9993624709929226,0.03505705154794783,0.001875676141120493,-0.0041878062263132464,-0.0022938741249963605,-0.0196133,0.016435945400001636,9.8000207046
314,130.726,0.8389261744966443,0.006501855311418229,0.0015355734883314154,-0.9993664453344091,0.034956565278574124,0.0018775152871385212,-0.0036171401515604175,-0.0023077065898105473,-0.0196133,0.014553068600001565,9.8019035814
315,130.852,0.8263888888888888,0.006353724207401307,0.0013753303023274982,-0.9993769680475039,0.03469005657160654,0.0018741516489535644,-0.002229500962421252,-0.002402041009627228,-0.01980943299999982,0.009806650000001202,9.80665
316,130.93,0.8263888888888888,0.006253597564400922,0.0012379834132281431,-0.9993848313928264,0.03448414328603301,0.0017493544761091496,-0.0030237730015069087,-0.0033296962799504205,-0.022869107799999937,0.009806650000001202,9.80665
317,131.02,0.8068965517241379,0.006138066822477401,0.0010795062334981178,-0.9993939044835832,0.034246551033448175,0.0016053577382117482,-0.003940240738913436,-0.00440006774570795,-0.026399501800000072,0.009806650000001202,9.80665
318,131.128,0.815068493150685,0.006025701896025774,0.0008726643247214138,-0.9994050025659065,0.03394805309313238,0.0018694502346758002,-0.003999617212803139,-0.005036040731453285,-0.02941995,0.011037444129555036,9.80665
319,131.219,0.8291139240506329,0.005986008405351634,0.000663493846401176,-0.9994147940165498,0.033668522907711204,0.003006332918722469,-0.0018722350927833135,-0.00421472384711274,-0.02941995,0.014650420445345043,9.80665
320,131.325,0.8192771084337349,0.005939772031599346,0.00041984471780840587,-0.9994261994425737,0.03334291631809976,0.004330613847392028,0.000605814409657012,-0.003258025058760152,-0.02941995,0.01885894230769325,9.80665
321,131.474,0.7894736842105263,0.005995399091226649,1.945662156355117e-05,-0.9994426870845078,0.032833721741970044,0.005950769297263124,-1.4923521218054197e-05,-0.004624388175151306,-0.02941995,0.0196133000000012,9.80665
322,131.526,0.7631578947368421,0.00602096497583718,-0.00012322943412968254,-0.9994484643937552,0.03265338928964118,0.006503883033269426,-0.0004408901673281999,-0.005239526919740887,-0.02941995,0.0196133000000012,9.80665
323,131.623,0.7707006369426752,0.006019029894495421,-0.00036121075732852215,-0.9994598777763892,0.03230278904803912,0.006986766858505103,-0.0021277562804373233,-0.006094734166038356,-0.02941995,0.018605501976286427,9.80665
324,131.772,0.8538461538461538,0.005807894906676749,-0.0006085506308246564,-0.9994800795028096,0.03170462805784166,0.0054261112850704975,-0.00846173371769928,-0.006182450856350857,-0.02941995,0.012830044071147729,9.80665
325,131.82,0.7829457364341085,0.0057398782663056315,-0.0006882305900717357,-0.9994865874415223,0.03151193189992569,0.004923349758057992,-0.010502209670642793,-0.006210708582089114,-0.02941995,0.010969493873519098,9.80665
326,131.932,0.7829457364341085,0.004114134278049621,-0.0008817788363802558,-0.9995000579955357,0.03125390786741067,0.00372485281251051,-0.05027080726194684,0.006226531041384726,-0.03267559898785381,0.009806650000001202,9.813161297975707
327,132.033,0.7207792207792207,0.00216405388304424,-0.0010588346345472026,-0.9995116398531468,0.031084438570879287,0.002635689762417373,-0.09768328667892752,0.02156732336953316,-0.03668560566801549,0.009806650000001204,9.821181311336032
328,132.144,0.6878980891719745,-0.004844250888817402,-0.001040076471150913,-0.9994184749223514,0.03155242115834258,-0.0034055370388825917,-0.15515483279780684,0.02751932578252216,-0.03735297174796745,0.00980665000000118,9.625785077032518
329,132.27,0.6625,-0.020319759256500126,-0.0006890138328951518,-0.9991490388555556,0.03309489994816522,-0.01775094286095888,-0.2286852018498882,0.017415477746596686,-0.03233005345528395,0.009806650000001114,9.088332819715383
330,132.353,0.674074074074074,-0.03024228192729821,-0.00029897560502686925,-0.9989521450408331,0.034010276829383866,-0.02712943909440652,-0.2656411201231018,0.011265786262008571,-0.028647772834644234,0.009420561417323189,8.750311637795226
331,132.423,0.6296296296296297,-0.03693815668728941,0.0010075379571227747,-0.9986666012753358,0.03416230657252431,-0.03460032245012319,-0.22612605132455535,0.009194662904469353,-0.023242532677164855,0.006717941338583476,8.563830852362187
332,132.571,0.5683453237410072,-0.051095149036986115,0.003769880917096505,-0.9980628801711416,0.034483740886592694,-0.05039590440221099,-0.14257990586476543,0.004815716377100407,-0.011814310629921918,0.00100383031496196,8.169557191732306
333,132.619,0.5441176470588235,-0.054537695881483945,0.004918248513010612,-0.9978956821224021,0.034519505315328006,-0.0545379862785334,-0.12219171804189906,0.003710801074747143,-0.008943664800000339,9.93690740514729e-16,8.114100663199993
334,132.722,0.627906976744186,-0.0590112089604237,0.00802272062152003,-0.9976094407409671,0.03442257406795868,-0.060938885435462,-0.09545309469103813,0.002139391348464426,-0.004903325,1.00160752324039e-15,8.1787461
335,132.832,0.7217391304347827,-0.06378874720006705,0.011338176271383733,-0.9973037460617648,0.034319055260088535,-0.06777479715645221,-0.06689728334546473,0.00046118678641528894,-0.0005883990000005793,1.010062339743521e-15,8.24778491599999
336,132.945,0.7130434782608696,-0.06710784736455161,0.01533151973932228,-0.9970318707996926,0.034033004071990496,-0.07255883079767167,-0.056797800511122716,-0.00042064560949791555,0.0,-0.007688413599997777,8.38405812439998
337,133.034,0.652542372881356,-0.06953047974492046,0.01854754007870542,-0.9968228210391219,0.03378604270622302,-0.0760569520592683,-0.05116218559444056,-0.0010136637974063629,0.0,-0.014670748399997656,8.49926664859998
338,133.134,0.5656565656565656,-0.07201399532097365,0.022329934032226377,-0.996584454150132,0.03343814120246106,-0.07956605049967704,-0.04531975722313039,-0.0019148034071546818,0.0,-0.019613299999998942,8.630165812799971
339,133.219,0.6823529411764706,-0.07377974051865585,0.02578939997240022,-0.996376806398127,0.033040510846471104,-0.0819389294385906,-0.04106246820092273,-0.003020636614411878,0.0,-0.01961329999999893,8.74353068679998
340,133.294,0.7294117647058823,-0.07533775098719918,0.028841869919612843,-0.9961935877934166,0.03268966053236227,-0.08403264614939697,-0.037306036710738996,-0.003996371797286005,0.0,-0.019613299999998918,8.843558516800003
341,133.443,0.7403846153846154,-0.07786305915041364,0.035000373622293246,-0.9958274489424596,0.031778757573441715,-0.08494790891806278,-0.0306413274790555,-0.005624382601430121,0.0,-0.023349166666665984,9.04126431666668
342,133.52,0.68,-0.07900547775047469,0.03820984987623862,-0.995637624395452,0.03124700139901279,-0.08449529566698595,-0.027424841520508933,-0.0063771308115167505,0.0,-0.026345643055555014,9.143144513888908
343,133.616,0.56,-0.08035236262369792,0.042162693663923806,-0.9954029506312077,0.030526762330107992,-0.08328505238843238,-0.023465462978780535,-0.007849822245864432,0.0,-0.028758390277775724,9.264871502777801
344,133.698,0.37857142857142856,-0.08119548210294632,0.0453462448498557,-0.9952104015617472,0.029684231403359716,-0.07968730798789371,-0.020285080952037106,-0.01122818039065019,0.0,-0.025567337499998306,9.347838875000015
345,133.8,0.31390134529147984,-0.0822442404795725,0.04930627193479582,-0.9949708893046134,0.028636205128623936,-0.07521206495307678,-0.01632899599194117,-0.015430528326847597,0.0,-0.021597979166664956,9.451042191666682
346,133.928,0.4876847290640394,-0.08325902328677587,0.05346603148613451,-0.9947179865494948,0.02705389169616979,-0.06414883905033905,-0.011710747327987575,-0.02031539617340069,0.0,-0.01961329999999883,9.554615124696353
347,134.049,0.4729064039408867,-0.0840296575450323,0.05689134664292929,-0.994508756136342,0.025390848375319557,-0.050280032159104954,-0.0075618518961345985,-0.024689772268116094,0.0,-0.01961329999999882,9.63628427064777
348,134.193,0.40217391304347827,-0.08393064249063296,0.05915648498498605,-0.9944455076958322,0.02298103132895376,-0.028611795233232845,0.006170564695211694,-0.03018417137333889,0.003833875514403325,-0.015779424485595484,9.719197281687244
349,134.284,0.39869281045751637,-0.08353686146222446,0.05999754266225758,-0.9944660844538828,0.021317787716090934,-0.013235723300851439,0.01771538543089265,-0.033750372812335186,0.007506324691357317,-0.012106975308641486,9.766939120987645
350,134.354,0.40816326530612246,-0.08297252346876607,0.060371292534725465,-0.9945184403819961,0.020004922302039256,-0.0015056999074105938,0.02741277658521991,-0.03643955551232827,0.00980665,-0.0098066499999988,9.800811799805448
351,134.403,0.4642857142857143,-0.0817750993770635,0.059794349668042694,-0.9946672013272377,0.018983259182405118,0.00640537820263308,0.036707774761350564,-0.03815609400780222,0.00980665,-0.009806649999998798,9.815769802918282
352,134.532,0.30357142857142855,-0.07862269717645685,0.05827545926391777,-0.995058837285119,0.01629357464295855,0.02723250220663797,0.06117828016383152,-0.04267514433262409,0.00980665,-0.009806649999998793,9.855149035603112
353,134.663,0.25,-0.07381279159126986,0.05580430433278523,-0.9955993352661905,0.013156971092664733,0.04310599103569966,0.08565992072224575,-0.04853685297071922,0.00980665,-0.00980664999999879,9.882945737
354,134.72,0.30327868852459017,-0.07100922585612435,0.054318754361610745,-0.9958975996885243,0.011613160398817234,0.04768155726790313,0.09614954048394893,-0.05164961102604789,0.00980665,-0.00980664999999879,9.889653485599998
355,134.824,0.6447368421052632,-0.06589394802357643,0.051608277221221285,-0.9964418014415547,0.008796382992498032,0.05602995881438248,0.11528849583864194,-0.05732902923226353,0.00980665,-0.009806649999998788,9.9018921848
356,134.895,0.6513157894736842,-0.06159536010870523,0.0495690560571893,-0.9968169947771861,0.006558789013567819,0.05771029706299306,0.12434696969389886,-0.06097478152811514,0.00980665,-0.009806649999998788,9.9028728498
357,135.027,0.618421052631579,-0.052838033037953085,0.045598590312697515,-0.9975180223872406,0.002100086206789373,0.057018796935677664,0.13738349148630835,-0.06753298337757457,0.00980665,-0.009806649999998788,9.8976949386
358,135.132,0.514792899408284,-0.04567909809784005,0.04249547750996797,-0.9980220723802892,-0.0016993088467862011,0.05623843944072733,0.14494915080070483,-0.07328598183393426,0.00980665,-0.009806649999998788,9.8909087368
359,135.233,0.54,-0.03840545099507792,0.03962148240474801,-0.9983992839479405,-0.0058615586299520005,0.05502520889043819,0.1465936410427092,-0.0798969689011568,0.00980665,-0.00980664999999879,9.879023077000001
360,135.304,0.4533333333333333,-0.033292293130760084,0.03760114921196968,-0.9986644524756955,-0.008787496596335822,0.05417234385013594,0.14774966883659343,-0.08454429644346166,0.00980665,-0.009806649999998791,9.8706678112
361,135.402,0.3806818181818182,-0.026422276763584388,0.034691813234152984,-0.9989199214839157,-0.013174437112524246,0.05565756791829964,0.1453181658983246,-0.08931100213527589,0.011924886399998965,-0.009806649999998791,9.861253427200003
362,135.556,0.3474178403755869,-0.015866720876756543,0.02996544342007119,-0.9991798370269027,-0.020514200269488286,0.06140051352977747,0.13634078001976022,-0.09469151037931438,0.017965782799999937,-0.009806649999998794,9.849171634400001
363,135.62,0.3495575221238938,-0.011698624688702159,0.027966619286150424,-0.9992409304320821,-0.02369866076514531,0.06273185032606134,0.13194038254022675,-0.09761503624916021,0.01875031480000034,-0.008943664799999133,9.844150629600001
364,135.749,0.3811659192825112,-0.00413859013230594,0.023804527021751815,-0.9991835098817248,-0.030633623994868964,0.06135435843467731,0.12049444994330565,-0.10615316236019016,0.013690083400000705,-0.0038834333999995,9.834030166800002
365,135.852,0.543859649122807,0.0016157727381072347,0.020273944438928552,-0.9991217090864714,-0.03638321906639307,0.0857374928445836,0.08888349593047006,-0.13358115686833702,0.009962931274900048,1.2033510508561035e-15,9.8261070187251
366,135.922,0.5029239766081871,0.0007841007303376574,0.014386616278829355,-0.998811366514451,-0.04386296386072292,0.5309423814671814,-0.3105866626735655,-0.49890204147983785,0.012697853585657013,1.203016119470725e-15,9.823372096414344
367,136.017,0.5894039735099338,-0.00034459699449257983,0.006396670918694048,-0.9983901873095662,-0.054014046081600015,1.135149016026473,-0.852724735064803,-0.9946946705954886,0.01640953386454178,1.2025615697334254e-15,9.819660416135457
368,136.132,0.5629139072847682,-0.001339077117439168,-0.0004740570183042241,-0.9980297701146353,-0.0627258848929943,1.4363274523262721,-1.1450108570487756,-1.2334103849082028,0.13966567661295032,-15.707287579240033,24.826918478030088
369,136.229,0.6982248520710059,-0.0013985580200400042,-0.00039805464029053425,-0.9980389614844489,-0.0625784803195166,0.7886399624440186,-0.6286632928648228,-0.6771841442085856,0.49254690483876046,-61.877193493958266,68.94857900282895
370,136.346,1.0,-0.0014703030262698668,-0.0003063816688719755,-0.9980500479820591,-0.062400683050476524,0.007408660215041607,-0.005852313385315666,-0.006272080684419423,0.9181871491935312,-117.56666763850582,122.16748912036078
371,136.445,1.0,-0.0015263557472053398,-0.00023551421659872453,-0.9980505914883188,-0.06239085691131384,0.0007173574429406137,-0.0005186935225817064,-0.0005318481322986443,0.5657382151395043,-71.95811114482875,78.5747868318802
372,136.497,0.96,-0.0015557726331156517,-0.00019832682909506953,-0.9980508296004946,-0.062386449378375085,0.0007098693608406526,-0.0005131491032740715,-0.0005286955469440057,0.37679415378485026,-47.505092623703845,55.20260960796686
373,136.63,0.9941520467836257,-0.0016259444831284108,-9.972906007590812e-05,-0.9980507161688733,-0.06238676046033567,0.0006948109101504091,-0.0005008925595320771,-0.0005223989854566752,0.00980665,-0.0098066499999988,9.80665
374,136.714,1.0,-0.0016601618994702275,-3.051195701407776e-05,-0.9980492043822016,-0.06241004911145118,0.0006934608956798914,-0.0004969876739196488,-0.0005219441498629749,0.00980665,-0.0098066499999988,9.80665
375,136.801,1.0,-0.0016956013663956746,4.1177185442806255e-05,-0.9980476386031486,-0.062434169500106516,0.0006920626664068554,-0.0004929433281067771,-0.0005214730701409281,0.00980665,-0.0098066499999988,9.80665
376,136.932,0.9940119760479041,-0.0017388301518394102,0.00011743486293621221,-0.9980454202355701,-0.06246836804982277,0.0006886121421121069,-0.0004867101684212698,-0.0005202246331609787,0.00980665,-0.0098066499999988,9.80665
377,137.002,0.9939759036144579,-0.0017588995904228313,0.0001487090798562554,-0.9980442764964528,-0.06248600804559397,0.0006863661762326957,-0.00048333659907802965,-0.0005193963451310991,0.00980665,-0.0098066499999988,9.80665
378,137.138,0.9877300613496932,-0.0017950055406525248,0.0001972858417180787,-0.9980425349444373,-0.06251269382011075,0.0006758276247849559,-0.00047360490198737203,-0.0005201188259268078,0.00980665,-0.0098066499999988,9.80665
379,137.223,0.9938271604938271,-0.0018132426067332462,0.00020936945707892697,-0.9980421673289751,-0.06251799310328286,0.0006599785892356437,-0.00046275659061287576,-0.0005240679655904811,0.00980665,-0.0098066499999988,9.80665
380,137.362,1.0,-0.001842464205742149,0.00022676191346896518,-0.9980417300257476,-0.06252406640570178,0.0006390517845145031,-0.0004504393840457218,-0.0005249674935209279,0.00980665,-0.0098066499999988,9.80665
381,137.397,0.9939024390243902,-0.0018485703941822837,0.0002262126327586032,-0.9980419609857508,-0.06252019910039146,0.0006441714474467527,-0.00045862603645986536,-0.0005136238303465967,0.00980665,-0.0098066499999988,9.80665
382,137.564,0.9937888198757764,-0.0018777056361680728,0.00022359177908344737,-0.9980430629949092,-0.06250174652933937,0.0006685995534377745,-0.0004976880636930688,-0.0004594983517719251,0.00980665,-0.0098066499999988,9.80665
383,137.619,0.9937888198757764,-0.0018862399688570459,0.00022140577483064416,-0.9980435238308163,-0.06249413853830827,0.0006727937438990926,-0.0005034021115861849,-0.00045113506168126884,0.00980665,-0.0098066499999988,9.80665
384,137.732,0.9700598802395209,-0.001900244471983414,0.00021251419614951662,-0.9980447962902452,-0.06247341552126644,0.0006686009252443915,-0.0004913557725958542,-0.0004654283155687135,0.00980665,-0.0098066499999988,9.80665
385,137.851,0.9875,-0.001914873111888835,0.00020308762231440762,-0.9980461416968137,-0.062451509304394366,0.0006644674895575173,-0.0004797052928811971,-0.0004804952262756618,0.00980665,-0.0098066499999988,9.80665
386,137.912,0.9875,-0.0019200039400477749,0.00019700926627384713,-0.9980469380524416,-0.062438637669258217,0.0006679383232184344,-0.0004942573224460435,-0.000488510420952465,0.00980665,-0.0098066499999988,9.80665
387,138.024,0.9874213836477987,-0.0019294244769953353,0.0001858490060026559,-0.9980484002135944,-0.0624150045031066,0.0006743110014155271,-0.0005209758029585441,-0.0005032268439656094,0.00980665,-0.0098066499999988,9.80665
388,138.129,0.9811320754716981,-0.0019378645742287692,0.00017322689845039021,-0.9980497983305591,-0.06239242201244261,0.0006879342845567154,-0.0005327325234825301,-0.0005107860677757316,0.00980665,-0.0098066499999988,9.80665
389,138.253,0.9937888198757764,-0.0019466197867238826,0.00015163775531918026,-0.9980515340576834,-0.06236443350489068,0.0007276953796723051,-0.000505479559901038,-0.0005004088909897422,0.00980665,-0.0098066499999988,9.80665
390,138.289,0.9874213836477987,-0.0019491616226095607,0.00014536993957140916,-0.9980520379784614,-0.0623563078091498,0.0007392389234155416,-0.0004975674091838301,-0.0004973961622454225,0.00980665,-0.0098066499999988,9.80665
391,138.451,0.9936305732484076,-0.001728950606810052,-0.00012007326347419323,-0.9980534519222982,-0.06233935528045631,0.006619760963287911,0.005534775483362931,-0.00048260627375481765,0.00980665,-0.0098066499999988,9.80665
392,138.492,0.9358974358974359,-0.0016732181892311704,-0.00018725333338078857,-0.9980538097722815,-0.06233506482566351,0.008108041232638153,0.007061479548760391,-0.00047886315382818353,0.00980665,-0.0098066499999988,9.80665
393,138.63,0.7884615384615384,-0.0015057540560612093,-0.0003923674235758317,-0.9980547892678926,-0.062323397837206654,0.010507357068360654,0.009532856762410028,-0.00047114754980430017,0.011061901199999304,-0.011061901199998104,9.80665
394,138.772,0.7745664739884393,-0.001402025524111504,-0.0005318337504670413,-0.9980550303239122,-0.06232084808015285,0.004079934950453286,0.0029843876659880215,-0.0004798527285456648,0.016632078399999143,-0.016632078399997943,9.80665
395,138.838,1.0,-0.0013538136712334687,-0.0005966561277545091,-0.9980551423640339,-0.0623196629818039,0.0010925415717074078,-5.9266984461845904e-05,-0.0004838987975381303,0.01922103399999924,-0.01922103399999804,9.80665
396,138.932,1.0,-0.0013486944824014574,-0.0006194198783963229,-0.998054827393422,-0.06232462166792086,0.0006207087892107723,-0.0004991647414863174,-0.0004963096547871792,0.01302323120000198,-0.01302323120000078,9.80665
397,139.026,1.0,-0.0013511403146871082,-0.0006339027922367847,-0.998054455929607,-0.0623303716104024,0.0005992259597405798,-0.00047537150792777616,-0.0005095119732432062,0.0056486304000002135,-0.005648630399999013,9.80665
398,139.135,1.0,-0.001353709002850087,-0.0006549017197022303,-0.998053788011696,-0.06234079086604424,0.0005914255345281484,-0.000475057911155324,-0.0005160790212622176,0.0,1.2009682532858392e-15,9.80665
399,139.225,0.9942857142857143,-0.0013554002359288072,-0.0006789964996537969,-0.9980528554355012,-0.062355422055075195,0.0006124770404711322,-0.0005186252270738026,-0.0005074551577331142,0.0,1.2009682532858392e-15,9.80665
400,139.345,0.9826589595375722,-0.0013568318423669015,-0.0007056793105458393,-0.9980517090844341,-0.06237344468148345,0.0006273320587179447,-0.0005554404558130989,-0.0004883888630299912,0.0,1.2009682532858392e-15,9.80665
401,139.403,0.9942196531791907,-0.0013568363954466623,-0.0007140314526746163,-0.9980512360650645,-0.062380915345272,0.0006234805832259511,-0.0005554734773915073,-0.0004728555125466588,0.0,1.2009682532858392e-15,9.80665
402,139.544,0.9942528735632183,-0.0013568474641405637,-0.0007343357981945795,-0.998050086138666,-0.062399076786551065,0.0006141175134954126,-0.0005555537539872934,-0.00043509340188889267,0.0,1.2009682532858392e-15,9.80665
403,139.612,1.0,-0.0013561465889991703,-0.0007446347310171022,-0.9980494776344565,-0.06240870405360872,0.0006134890917822148,-0.0005520355121967282,-0.00042366320698658945,0.0,1.2009682532858392e-15,9.80665
404,139.718,1.0,-0.0013508078670806437,-0.0007637359347705037,-0.9980482048253323,-0.06242893355895947,0.0006358810979687393,-0.0005251646180548163,-0.0004466189457886487,0.0,1.2009682532858392e-15,9.80665
405,139.825,1.0,-0.0013454187798609984,-0.0007830173385593156,-0.9980469200085749,-0.062449353908700315,0.0006584843494966471,-0.0004980402249115644,-0.0004697912481643133,0.0,1.2009682532858392e-15,9.80665
406,139.943,1.0,-0.001339195986749756,-0.0008028353070457619,-0.9980453540538115,-0.06247425176269017,0.000648911837022748,-0.0005169633063487769,-0.00046914385538548086,0.0,1.2009682532858392e-15,9.80665
407,140.033,1.0,-0.001334395323668944,-0.0008176691909531556,-0.9980441306555042,-0.06249370477307811,0.0006348925172351305,-0.0005409062337130302,-0.0004635476567782463,0.0,1.2009682532858392e-15,9.80665
408,140.137,0.9942857142857143,-0.0013284345091755106,-0.0008346691040929998,-0.998042698132983,-0.06251648298247978,0.0006155487596988652,-0.0005531251761130974,-0.00046250460157170974,0.0,1.2009682532858392e-15,9.80665
409,140.193,0.9941860465116279,-0.0013248382359883127,-0.0008436906033044232,-0.9980419091758591,-0.06252902796756474,0.0006021928731352038,-0.0005452568749897152,-0.00046701528923586186,0.0,1.2009682532858392e-15,9.80665
410,140.333,1.0,-0.0013158475530203207,-0.0008662443513329746,-0.9980399367830495,-0.06256039043027713,0.0005688031567260602,-0.0005255861221812654,-0.00047829200839623874,0.0,1.2009682532858392e-15,9.80665
411,140.425,1.0,-0.0013098310634094444,-0.0008805424463408338,-0.9980386271729613,-0.06258120009072661,0.0005777051383629478,-0.0005557253598235641,-0.00046846340456977164,0.0,1.2009682532858392e-15,9.80665
412,140.524,0.9941176470588236,-0.0013033322566250998,-0.0008958099707705005,-0.9980372148679225,-0.06260363841336695,0.0005942719406448324,-0.0005979141104035129,-0.00045398156507871874,0.0,1.2009682532858392e-15,9.80665
413,140.632,0.9940476190476191,-0.0012957261055390886,-0.0009136068573790079,-0.9980356303003669,-0.06262879786191096,0.0007293888908510918,-0.0006169531266186403,-0.0004475305473294678,0.0,1.2009682532858392e-15,9.80665
414,140.713,1.0,-0.0012891410200343994,-0.0009289000997430636,-0.9980343670943317,-0.06264882871830348,0.0010302335495107045,-0.0005852351012914268,-0.0004586252714117687,0.0,1.2009682532858392e-15,9.80665
415,140.822,1.0,-0.0012802796086762356,-0.0009494798950230937,-0.9980326672244817,-0.06267578382135021,0.0014350738926453338,-0.0005425528202955373,-0.00047355520875709046,0.0,1.2009682532858392e-15,9.80665
416,140.934,0.9820359281437125,-0.0012711165306543,-0.0009646475485608666,-0.9980309045961749,-0.06270379595286125,0.0012108262513303965,-0.000542709378088006,-0.0005087576552675717,0.0,-0.009924802409637922,9.786800395180721
417,141.004,0.9942528735632183,-0.0012653775705139148,-0.0009728817990790352,-0.9980297996257649,-0.06272136919024195,0.0009372901465055601,-0.0005519767226389494,-0.0005348970163071218,0.0,-0.018195471084336074,9.770259057831325
418,141.126,0.9941860465116279,-0.0012557959100418779,-0.0009875300246635311,-0.9980278802495205,-0.0627518725808789,0.000574045100016524,-0.0005657597710378476,-0.0005769893717952109,0.0,-0.026242595399997015,9.754164809200004
419,141.23,1.0,-0.001248889263454889,-0.0010009081660051176,-0.9980262633440139,-0.0627775027917338,0.0006047926011960954,-0.0005704048653133215,-0.0006024790336377918,0.0,-0.014003896199998776,9.7786422076
420,141.307,1.0,-0.0012437756885779832,-0.0010108131360368703,-0.9980250662120523,-0.06279647900553983,0.0006275575780309732,-0.0005738440216518939,-0.0006213511871173973,0.0,-0.004942551599998988,9.7967648968
421,141.452,1.0,-0.0012342501644424795,-0.0010272545935744904,-0.9980229074911182,-0.06283069665878634,0.000638755447929725,-0.0005644610400777301,-0.0005946904460433838,0.0,1.2009682532858392e-15,9.80665
422,141.542,0.9882352941176471,-0.0012283640757746778,-0.0010369001003221483,-0.9980215917960913,-0.0628515513112654,0.0006376899613533167,-0.0005546231793705362,-0.0005623999813105867,0.0,1.2009682532858392e-15,9.80665
423,141.591,1.0,-0.0012251594274999857,-0.0010421515428847626,-0.9980208754732433,-0.06286290551094845,0.0006371098631061612,-0.0005492670107632856,-0.0005448196171782843,0.0,1.2009682532858392e-15,9.80665
424,141.76,1.0,-0.0012121702115379422,-0.0010586967053938343,-0.9980185362281697,-0.06290000189482262,0.0006867612332571302,-0.0005440073781646789,-0.0005261213399935512,0.0,1.2009682532858392e-15,9.80665
425,141.831,1.0,-0.00120667277940308,-0.0010656149207561743,-0.9980175562101404,-0.06291554367883558,0.0007086989455856381,-0.0005420735515654088,-0.0005191412842832506,0.0,1.2009682532858392e-15,9.80665
426,141.909,0.9880952380952381,-0.001200585863116506,-0.001071788629127106,-0.9980164945266333,-0.06293239113704902,0.0006796455103903995,-0.000545359109528363,-0.000510697825811803,0.0,1.2009682532858392e-15,9.80665
427,142.034,1.0,-0.0011908083608301444,-0.0010809965345793952,-0.9980148003011496,-0.06295928131958778,0.0006075307005085037,-0.0005532254092395308,-0.0004967939364723858,0.0,1.2009682532858392e-15,9.80665
428,142.146,0.9941520467836257,-0.0011819570958347626,-0.0010894798001209046,-0.9980133040427879,-0.06298301701302832,0.0005764617973472919,-0.0005355675227474436,-0.0004947643531486388,0.0,1.2009682532858392e-15,9.80665
429,142.243,0.9941520467836257,-0.0011741827237235288,-0.0010971059704722459,-0.9980120342485815,-0.06300314512912358,0.0005897338697686799,-0.0004906826047226762,-0.0005054971743375068,0.0,1.2009682532858392e-15,9.80665
430,142.311,0.9941176470588236,-0.0011687326484290548,-0.001102452151749475,-0.998011144083571,-0.0630172555610254,0.0005990380030125404,-0.0004592168889939705,-0.0005130212139338274,0.0,1.2009682532858392e-15,9.80665
431,142.425,1.0,-0.0011611488284868803,-0.0011152470503452664,-0.9980097120820035,-0.06303984271880826,0.0006144051815073946,-0.00048483266902852906,-0.0005178441921168048,0.0,1.2009682532858392e-15,9.80665
432,142.52,0.9585798816568047,-0.0011554760914486836,-0.0011275062087272333,-0.9980085438864853,-0.0630582201143407,0.0006271149439041484,-0.0005388321219704255,-0.0005186171518922176,0.0,1.2009682532858392e-15,9.80665
433,142.629,1.0,-0.0011486570986837797,-0.0011395015940224842,-0.9980071857807266,-0.0630796239322253,0.0006356520810624528,-0.0005869817654206318,-0.0005214664538820765,0.0,1.2009682532858392e-15,9.80665
434,142.771,1.0,-0.0011385460412468183,-0.001146937113489668,-0.9980053462571115,-0.0631087666650454,0.0006228542280089313,-0.0005950788648701025,-0.0005329427658580236,0.0,1.2009682532858392e-15,9.80665
435,142.814,0.9940476190476191,-0.0011354842421637942,-0.0011491887144550832,-0.9980047892182702,-0.06311759157709657,0.0006189788218025825,-0.0005975308034357877,-0.0005364179870901773,0.0,1.2009682532858392e-15,9.80665
436,142.934,0.9940828402366864,-0.0011282175166134189,-0.0011555126306115118,-0.9980033184842437,-0.06314085541743172,0.0006186685292050245,-0.0005580857140012048,-0.0005596563499420899,0.0,1.2009682532858392e-15,9.80665
437,143.033,0.9882352941176471,-0.0011226565544122514,-0.0011607435782812112,-0.9980021335936375,-0.0631595847876231,0.0006219810782931744,-0.0005098193082958473,-0.0005834276410751038,0.0,1.2009682532858392e-15,9.80665
438,143.112,1.0,-0.001118166029309558,-0.001164799681173135,-0.9980012028187398,-0.06317429865754207,0.0006227161199785763,-0.0004814001950435356,-0.0005975940423086277,0.0,1.2009682532858392e-15,9.80665
439,143.239,0.9823529411764705,-0.001110514602001114,-0.0011703564630633693,-0.9979998268438159,-0.06319606082191419,0.0006083228741772456,-0.000518117756582801,-0.0005811707326211015,0.0,1.2009682532858392e-15,9.80665
440,143.332,1.0,-0.0011049115883028059,-0.0011744256025577918,-0.9979988192401316,-0.06321199689503709,0.0005977829382754858,-0.0005450054197572184,-0.0005691442145034665,0.0,1.2009682532858392e-15,9.80665
441,143.45,0.9940828402366864,-0.0011007144504706552,-0.001179952137028206,-0.9979975350195974,-0.06323223657431785,0.0006124238427728413,-0.0005762642149347811,-0.0005749621286522596,0.0,1.2009682532858392e-15,9.80665
442,143.532,0.9940476190476191,-0.0010981384074585667,-0.0011838351319623235,-0.9979966419219441,-0.0632463037422367,0.0006258747326210176,-0.0005976522879209426,-0.0005814704198855923,0.0,1.2009682532858392e-15,9.80665
443,143.654,1.0,-0.0010927221791257277,-0.0011882370313883147,-0.9979953590186627,-0.06326655602226999,0.0006364823575131594,-0.00059778851107694,-0.0005736047041136754,0.0,1.2009682532858392e-15,9.80665
444,143.732,1.0,-0.0010880259938406565,-0.0011899802724532709,-0.997994574512886,-0.06327897698979748,0.0006359395678155124,-0.0005731980928685486,-0.0005549081524368351,0.0,1.2009682532858392e-15,9.80665
445,143.838,1.0,-0.001081643998453253,-0.0011923492923620574,-0.9979935083896511,-0.063295856766181,0.0006352019305340945,-0.0005397803450468915,-0.0005295000181067724,0.0,1.2009682532858392e-15,9.80665
446,143.932,1.0,-0.001080981715913051,-0.001192595134050705,-0.997993397754221,-0.06329760844108873,0.0006351253832690418,-0.000536312465555966,-0.0005268633249215781,0.0,1.2009682532858392e-15,9.80665
