,time,img_sim,orientation.x,orientation.y,orientation.z,orientation.w,angular_velocity.x,angular_velocity.y,angular_velocity.z,linear_acceleration.x,linear_acceleration.y,linear_acceleration.z
0,112.215,0.9939759036144579,-0.00026992346380161613,0.0004687683002649195,-0.7078554017531442,-0.7063571600648374,0.0003372078400570911,-0.00027776937175076426,-0.00023931732343044233,0.0,-0.0098066499999988,9.80665
1,112.295,0.9698795180722891,-0.00026608970208238307,0.00047019918546247413,-0.7078525152875317,-0.7063600531209195,0.0003194722469197575,-0.00028776662831660416,-0.00023286917130462754,0.0,-0.0098066499999988,9.80665
2,112.397,0.9779559118236473,-0.00026005200775248863,0.0004738379191699285,-0.7078490726987416,-0.7063635027542301,0.00025139473180751877,-0.0003179039630340429,-0.00019383054110221347,0.0,-0.0098066499999988,9.80665
3,112.5,0.9819639278557114,-0.00025395512034092916,0.00047751232673725957,-0.7078455963590811,-0.7063669862074752,0.00018264979007653892,-0.0003483367618173361,-0.00015440917923115188,0.0,-0.0098066499999988,9.80665
4,112.606,0.9839679358717435,-0.0002514018372869506,0.0004802877345921331,-0.7078414792416872,-0.7063711109043802,0.0002505297453608329,-0.00031955870264209957,-0.00016669479617848924,0.0,-0.0098066499999988,9.80665
5,112.701,0.982,-0.0002491135175687622,0.0004827751284243311,-0.7078377893723247,-0.7063748075667007,0.0003113655543420422,-0.00029376704583410356,-0.00017770549061242412,0.0,-0.0098066499999988,9.80665
6,112.792,0.972,-0.0002469902088882072,0.00048508457247094315,-0.7078343672795517,-0.7063782359006261,0.00034909607855087356,-0.0002826220077412404,-0.00019869206295129813,0.0,-0.0098066499999988,9.80665
7,112.895,0.966,-0.0002446775708376982,0.0004876018740561542,-0.7078306423654888,-0.7063819675278761,0.0003646737355571898,-0.00028791431204482613,-0.0002362315706023736,0.0,-0.0098066499999988,9.80665
8,112.992,0.992,-0.00024249964956683014,0.0004899725367140718,-0.7078271344367111,-0.7063854817787816,0.00037934395623304303,-0.00029289832677732995,-0.00027158431081746905,0.0,-0.0098066499999988,9.80665
9,113.099,0.962,-0.00023919282164581795,0.0004915483492146006,-0.707822890761819,-0.7063897340813384,0.0003779779156075274,-0.0003125400255091984,-0.0002985993262528103,0.0,-0.0098066499999988,9.80665
10,113.19,0.9859719438877755,-0.00023630983694795005,0.000492807356602075,-0.7078192524360665,-0.706393379873804,0.00037544552013782953,-0.00033034934242906727,-0.00032063884308550374,0.0,-0.0098066499999988,9.80665
11,113.301,0.9819639278557114,-0.00023509464369791564,0.0004924515485950848,-0.7078145982768286,-0.7063980440525899,0.0003547639525018577,-0.0003287346349153885,-0.00032871373766382375,0.0,-0.0098066499999988,9.80665
12,113.394,0.9899799599198397,-0.00023634499365246498,0.0004902889835476238,-0.7078104857381663,-0.7064021658847609,0.00032009527329860104,-0.000304377544180387,-0.0003169398374030782,0.0,-0.0098066499999988,9.80665
13,113.495,0.9318637274549099,-0.00023770290059235187,0.0004879403913993062,-0.7078060194327374,-0.7064066422831403,0.0002824443421208725,-0.0002779252198337737,-0.000304153128517753,0.0,-0.0098066499999988,9.80665
14,113.596,0.972,-0.00023609450512389186,0.0004885836436425804,-0.7078026021429784,-0.7064100663965529,0.00031212605587002917,-0.00027861132887581683,-0.00031493450025656887,0.0,-0.0098066499999988,9.80665
15,113.703,0.966,-0.00023426097302244083,0.0004893958131263551,-0.7077990276740898,-0.7064136479516355,0.0003465125904246005,-0.00028052378934715326,-0.0003273859645603637,0.0,-0.0098066499999988,9.80665
16,113.794,0.982,-0.00023287209328382147,0.0004904955019368113,-0.7077958260215754,-0.7064168555619541,0.00035678653884679113,-0.00027845323784276866,-0.00030748693435453053,0.0,-0.0098066499999988,9.80665
17,113.895,0.974,-0.00023153270363860645,0.0004922008903045093,-0.7077920808527334,-0.7064206072617706,0.0003456985356751834,-0.0002717720781220126,-0.0002492550056194909,0.0,-0.0098066499999988,9.80665
18,113.994,0.9859719438877755,-0.00023021983656062336,0.0004938725086055203,-0.7077884098456506,-0.7064242846705016,0.00033483009692281487,-0.00026522321859374643,-0.0001921761843841524,0.0,-0.0098066499999988,9.80665
19,114.098,0.9819639278557114,-0.0002285741847331084,0.000495248308608045,-0.7077846098924232,-0.7064280914827681,0.0003309708083534533,-0.00025012781966451703,-0.0002012631495991547,0.0,-0.0098066499999988,9.80665
20,114.188,0.9899799599198397,-0.00022713594420939698,0.000496418758426634,-0.7077813244626734,-0.7064313828553284,0.0003280314861284755,-0.00023662919872922776,-0.00021278525056109645,0.0,-0.0098066499999988,9.80665
21,114.296,0.9779559118236473,-0.00022631479444856057,0.0004976726007396745,-0.7077771251170887,-0.7064355895839356,0.0003368007432927485,-0.0002456806801366126,-0.0002292585759059003,0.0,-0.0098066499999988,9.80665
22,114.395,0.9919839679358717,-0.00022672315538123597,0.0004986285611077363,-0.7077729461186169,-0.7064397756731287,0.0003606196652806114,-0.0002863818154731988,-0.0002477558561830759,0.0,-0.0098066499999988,9.80665
23,114.501,0.9799599198396793,-0.00022716083777070655,0.0004996563766252537,-0.7077684721927872,-0.7064442571855365,0.0003857205867019671,-0.0003298255985981216,-0.00026724254190680535,0.0,-0.0098066499999988,9.80665
24,114.596,0.984,-0.00022759520715992344,0.0005009786015831411,-0.707764514994087,-0.706448220665276,0.00037037128507460166,-0.000356037268369641,-0.00025473656682427424,0.0,-0.0098066499999988,9.80665
25,114.695,0.9739478957915831,-0.00022804786578658104,0.000502356499170834,-0.7077603911764941,-0.7064523510283729,0.00035437569706292765,-0.0003833525873946955,-0.0002417040243698483,0.0,-0.0098066499999988,9.80665
26,114.8,0.9839679358717435,-0.00022931897229491914,0.0005017369469559768,-0.707756099414377,-0.7064566507370161,0.0003409300536794808,-0.00037727864453127773,-0.0002383442510492664,0.0,-0.0098066499999988,9.80665
27,114.898,0.9498997995991983,-0.0002313490866632556,0.0004989390088916997,-0.7077521812191365,-0.7064605774202939,0.0003321347856732734,-0.0003342285797053747,-0.00024636859082119634,0.0,-0.0098066499999988,9.80665
28,114.992,0.9899799599198397,-0.00023329633922063975,0.0004962552723810662,-0.7077484229502324,-0.7064643438307848,0.0003236985081979307,-0.0002929356603825657,-0.0002540654065208034,0.0,-0.0098066499999988,9.80665
29,115.095,0.9879759519038076,-0.00023388854121510802,0.0004978638533190022,-0.707744029568555,-0.7064687438082099,0.000326165546879105,-0.0003096672810799252,-0.0002545494391970022,0.0,-0.0098066499999988,9.80665
30,115.199,0.9899799599198397,-0.00023431913193099044,0.0004999819696791392,-0.7077395636454689,-0.7064732161386145,0.0003299280152755253,-0.0003332903604705744,-0.00025417506435313766,0.0,-0.0098066499999988,9.80665
31,115.297,0.984,-0.00023512445610846962,0.0005018870597912272,-0.7077355426044105,-0.7064772427525153,0.00033855535881593713,-0.00035022995388135235,-0.00026150022679939736,0.0,-0.0098066499999988,9.80665
32,115.393,0.98,-0.00023635582060141865,0.0005036526916493551,-0.7077318109602047,-0.7064809793411034,0.0003526341957040125,-0.000360931979026645,-0.00027717817435040997,0.0,-0.0098066499999988,9.80665
33,115.495,0.9779559118236473,-0.00023766414537517702,0.0005055286754986161,-0.707727846088236,-0.7064849494664782,0.00036759295989759265,-0.0003723028807435185,-0.0002938359936233609,0.0,-0.0098066499999988,9.80665
34,115.596,0.9839679358717435,-0.00023839415822081656,0.0005059972245059276,-0.7077240911080924,-0.7064887104255921,0.00035610608232673275,-0.00037851445784326643,-0.000270135938189924,0.0,-0.0098066499999988,9.80665
35,115.695,0.9779559118236473,-0.00023907470773574483,0.0005063705035017348,-0.7077204210714009,-0.7064923863709647,0.00034321856987662766,-0.0003842905352357769,-0.0002444168562069565,0.0,-0.0098066499999988,9.80665
36,115.792,0.9739478957915831,-0.00023959581393052305,0.0005073985446582246,-0.7077167739890362,-0.7064960388610964,0.00033380912907887266,-0.00038034198072273346,-0.00023569041793234595,0.0,-0.0098066499999988,9.80665
37,115.897,0.9899799599198397,-0.00023994448792582736,0.0005094905888381621,-0.7077127504350982,-0.7065000677046855,0.0003283810522407293,-0.0003618624145165085,-0.0002505997247062624,0.0,-0.0098066499999988,9.80665
38,116.003,0.9779559118236473,-0.00024030428033910403,0.0005115903228938345,-0.707708686575154,-0.7065041369118863,0.0003236689143814131,-0.00034337048279121566,-0.0002651037175673997,0.0,-0.0098066499999988,9.80665
39,116.095,0.9819639278557114,-0.00024096847998282545,0.000512860571770765,-0.7077050697990482,-0.706507758655205,0.0003542240927927176,-0.00033470585895702305,-0.0002529909738805152,0.0,-0.0098066499999988,9.80665
40,116.196,0.9799599198396793,-0.00024169765567865007,0.0005142550841247867,-0.7077010992078888,-0.7065117346995007,0.00038776836474425865,-0.0003251936088781811,-0.0002396932878764355,0.0,-0.0098066499999988,9.80665
41,116.295,0.9378757515030061,-0.00024281539229928988,0.0005152216195417006,-0.707696972768564,-0.7065158669718287,0.00040217155163329725,-0.0003266887962313209,-0.00024279640123984873,0.0,0.016186880120481823,9.848239648192768
42,116.393,0.9819639278557114,-0.0002444205003259771,0.0005156829935219967,-0.7076925978788053,-0.706520248239324,0.0003935664926793981,-0.00034155612124174995,-0.0002658362625434198,0.0,0.07408156084337392,9.940871137349395
43,116.5,0.9759519038076152,-0.0002461730162326663,0.0005161867385821161,-0.7076878212134566,-0.70652503186812,0.0003841711732093245,-0.00035778881283476954,-0.0002909920294769108,0.0,0.13729310000000125,10.0420096
44,116.599,0.9779559118236473,-0.00024969105825150536,0.0005150561165946437,-0.7076839231550743,-0.706528935863012,0.00039027532967516194,-0.00031681115652315724,-0.0002805506753729676,0.0,0.07927367669322723,9.949178522709161
45,116.695,0.9879759519038076,-0.00025310249293643977,0.0005139597558795192,-0.7076801432196733,-0.7065327215550284,0.0003961945117026398,-0.0002770752473725087,-0.0002704257259388424,0.0,0.023012417729091045,9.859160508366543
46,116.796,0.9779559118236473,-0.0002577328788833675,0.0005123867053061772,-0.7076760901455179,-0.7065367806439807,0.0003878681432776723,-0.0002652713064237904,-0.0002636962798210713,0.0,-0.0098066499999988,9.80665
47,116.901,0.9779559118236473,-0.0002638937711050359,0.0005102085227195219,-0.7076717778845624,-0.7065410991040693,0.0003603832858597934,-0.00029181376499851054,-0.00026177542005383607,0.0,-0.0098066499999988,9.80665
48,116.991,0.9799599198396793,-0.00026917453586646666,0.0005083415090738171,-0.7076680816608861,-0.706544800641288,0.00033682483664446546,-0.0003145644437768451,-0.00026012896882477706,0.0,-0.0098066499999988,9.80665
49,117.1,0.9959919839679359,-0.00027629480851760547,0.0005033388062326445,-0.7076642364634881,-0.7065486526818244,0.0003367583111936532,-0.00028128040127875276,-0.0002508018742994331,0.0,-0.0098066499999988,9.80665
50,117.194,0.9839679358717435,-0.0002825053749422453,0.0004987591720005963,-0.7076609815343831,-0.7065519135518306,0.00033945634193909187,-0.00024668774805985483,-0.0002420484968489148,0.0,-0.0098066499999988,9.80665
51,117.295,0.9799599198396793,-0.0002889763015467051,0.0004948591678424892,-0.707657226739544,-0.7065556743672048,0.0003526207001414142,-0.0002561080178711542,-0.0002505435079801818,0.0,-0.0098066499999988,9.80665
52,117.397,0.98,-0.0002952468554854648,0.0004922558684124109,-0.707653097915777,-0.7065598087965067,0.0003793454379774632,-0.0003265730161219841,-0.000282541163498536,0.0,-0.0098066499999988,9.80665
53,117.504,0.9859719438877755,-0.0003019369337703954,0.0004894343761645589,-0.7076487743423558,-0.7065641382409077,0.00040649275728631243,-0.00039830391014187763,-0.00031547050005236853,0.0,-0.0098066499999988,9.80665
54,117.596,0.9879759519038076,-0.0003110318178871888,0.0004843085124166627,-0.7076452847110472,-0.7065676326418819,0.00040338214545276944,-0.0003947536036672731,-0.00032480163149539384,0.0,-0.0098066499999988,9.80665
55,117.702,0.9519038076152304,-0.0003215107061087113,0.00047840262592452164,-0.707641264048887,-0.706571658799526,0.00039979817964455697,-0.00039066303316392454,-0.00033555271772322696,0.0,-0.0098066499999988,9.80665
56,117.81,0.9819639278557114,-0.00032847831907670657,0.0004737297116690042,-0.7076373460493768,-0.7065755827267289,0.00040277107006525184,-0.0003767740162297241,-0.00033875707937200416,0.0,-0.0098066499999988,9.80665
57,117.899,0.9939879759519038,-0.00033158524948566717,0.0004708339604984574,-0.7076342441527003,-0.706578689741647,0.00040992703884784376,-0.00035842236577147247,-0.00033589234516262045,0.0,-0.0098066499999988,9.80665
58,118.005,0.9839679358717435,-0.00033530602240323243,0.0004673896339151676,-0.707630563650659,-0.706582376303021,0.000417485775544785,-0.00033650366039142637,-0.0003321934201526482,0.0,-0.0098066499999988,9.80665
59,118.096,0.9739478957915831,-0.0003394102385209804,0.000464635634364551,-0.7076280241232068,-0.7065849194006869,0.00038093588762377813,-0.000314933014682953,-0.00031620606566857765,0.0,-0.0098066499999988,9.80665
60,118.196,0.974,-0.0003439203661229006,0.0004616092612320057,-0.7076252334336988,-0.7065877140135066,0.00034077117562267766,-0.00029122900840990873,-0.00029863754425751366,0.0,-0.0098066499999988,9.80665
61,118.3,0.9859719438877755,-0.0003489648342629169,0.0004580584407214071,-0.7076224359308039,-0.7065905154467605,0.00033351011225022433,-0.0002887166088912641,-0.0002996351737529043,0.0,-0.0098066499999988,9.80665
62,118.391,0.9859719438877755,-0.00035374005297432595,0.0004545396763124494,-0.7076200951135933,-0.7065928595500276,0.00036238588218111864,-0.00030911927146371685,-0.00032017842656932994,0.0,-0.0098066499999988,9.80665
63,118.495,0.9879759519038076,-0.0003591974457873644,0.000450518231273641,-0.7076174198939239,-0.7065955385251899,0.00039538676210213743,-0.0003324366001179463,-0.00034365642978809977,0.0,-0.0098066499999988,9.80665
64,118.602,0.9799599198396793,-0.0003645608220686599,0.0004476021073432212,-0.7076144755265925,-0.7065984862013914,0.0003902474301867181,-0.000331108213867992,-0.00033752087038010285,0.0,-0.0098066499999988,9.80665
65,118.703,0.9799599198396793,-0.00036960683435134347,0.0004449302031006545,-0.7076116835790788,-0.7066012812355628,0.00038281327974982505,-0.0003281814138172193,-0.0003297279026592144,0.0,-0.0098066499999988,9.80665
66,118.795,0.9819639278557114,-0.00037345513609824196,0.00044333867956095735,-0.7076096845353471,-0.7066032821322038,0.00040160721028223965,-0.00034203773038462036,-0.0003287737441714857,0.0,-0.0098066499999988,9.80665
67,118.899,0.9779559118236473,-0.00037684175432455274,0.0004426245788838076,-0.7076081256611063,-0.7066048418660701,0.00045578539976850443,-0.0003789849379099926,-0.00033561014360748264,0.0,-0.0098066499999988,9.80665
68,118.993,0.9859719438877755,-0.00037990273618294885,0.0004419791417333069,-0.7076067166786194,-0.7066062516255261,0.0005047541479580103,-0.0004123795293271541,-0.00034178919694386416,0.0,-0.0098066499999988,9.80665
69,119.096,0.9519038076152304,-0.0003827863759405353,0.0004418438260460172,-0.7076041935740474,-0.7066087768029443,0.00040945083368568733,-0.00037509549199603147,-0.00032392078591510486,0.0,-0.0098066499999988,9.80665
70,119.205,0.9819639278557114,-0.000385790331322285,0.0004417585758550565,-0.7076014242759909,-0.7066115484183586,0.00029350288212299033,-0.00032815430359914776,-0.00030251501512248004,0.0,-0.0098066499999988,9.80665
71,119.298,0.9579158316633266,-0.0003879420389142001,0.00044133326468879884,-0.7075995522449746,-0.7066134221627787,0.00025614735459819946,-0.0003119836793516757,-0.000286251596412602,0.0,-0.0098066499999988,9.80665
72,119.399,0.9519038076152304,-0.000389822448304353,0.0004404801398437969,-0.7075980637464533,-0.7066149122293821,0.00028390122846091813,-0.00032092014105482227,-0.0002708086800535179,0.0,-0.0098066499999988,9.80665
73,119.5,0.9819639278557114,-0.00039170285769450587,0.000439627014998795,-0.707596575247932,-0.7066164022959857,0.0003116551023236368,-0.00032985660275796887,-0.0002553657636944338,0.0,-0.0098066499999988,9.80665
74,119.596,0.969939879759519,-0.00039244983135849437,0.0004419994213831447,-0.7075952281690263,-0.7066177493354705,0.00034352744149650254,-0.0003290687398760613,-0.00026743415306905823,0.0,-0.0098066499999988,9.80665
75,119.7,0.9739478957915831,-0.0003932226966450703,0.00044468077256092054,-0.7075937712005086,-0.7066192062078189,0.0003782477483235651,-0.00032789085339006766,-0.0002814429417303042,0.0,-0.0098066499999988,9.80665
76,119.795,0.9819639278557114,-0.0003938920779391493,0.0004468103711458185,-0.7075918740581546,-0.7066211042417645,0.0003903924676123999,-0.0003374592082109318,-0.0002957924627698968,0.0,-0.0098066499999988,9.80665
77,119.899,0.9739478957915831,-0.0003945764188619929,0.00044871846397337786,-0.7075890475362501,-0.7066239330363743,0.0003777783943805837,-0.0003620256965514286,-0.0003135574203915903,0.0,-0.0098066499999988,9.80665
78,119.996,0.982,-0.0003952146983765681,0.00045049812747600525,-0.7075864112610122,-0.706626571431347,0.0003660133453086019,-0.00038493867125362157,-0.00033012665971182274,0.0,-0.0098066499999988,9.80665
79,120.101,0.972,-0.0003943335973528834,0.00045275869409573064,-0.7075838978435341,-0.7066290872854838,0.0003771070264047016,-0.0003652851276565336,-0.00030857586255296976,0.0,-0.0098066499999988,9.80665
80,120.197,0.984,-0.0003934409115533471,0.00045484401224478503,-0.7075816187173217,-0.7066313686473725,0.00038857021776493724,-0.0003448527969885602,-0.000286684276070444,0.0,-0.0098066499999988,9.80665
81,120.298,0.9779116465863453,-0.00039470179892525594,0.00045581694914917327,-0.7075792250736587,-0.7066337641668891,0.00038570043051593084,-0.00034711320098260536,-0.00027639326193214724,0.0,-0.0098066499999988,9.80665
82,120.414,0.9839357429718876,-0.00039917113252458005,0.00045525768637206794,-0.707576481688107,-0.7066365090528687,0.00036190217152969647,-0.00038233288588734085,-0.000282069799141027,0.0,-0.0098066499999988,9.80665
83,120.502,0.9578313253012049,-0.00040256166146199814,0.00045483341805840183,-0.7075744004990678,-0.7066385913801636,0.00034384831988496813,-0.0004090512675392073,-0.0002863761377132803,0.0,-0.0098066499999988,9.80665
84,120.593,0.9859719438877755,-0.0004034128467061379,0.00045620908281441153,-0.7075718625980163,-0.7066411312428974,0.00035866413048596244,-0.00037309519546162707,-0.000311400586665954,0.0,-0.0098066499999988,9.80665
85,120.695,0.984,-0.00040430004931698584,0.0004577967382773751,-0.7075690082010201,-0.7066439878584656,0.00037611429668745074,-0.00033119117952376455,-0.00033996812506360927,0.0,-0.0098066499999988,9.80665
86,120.793,0.974,-0.0004046311776927737,0.00045913964362744237,-0.7075665027929263,-0.706646495484156,0.0003902315425904596,-0.00031983593685759723,-0.0003449196026647541,0.0,-0.0098066499999988,9.80665
87,120.895,0.988,-0.0004042215324613598,0.0004602733017815378,-0.7075642381344682,-0.7066487625752057,0.0004010925086544053,-0.0003498431114065965,-0.0003175220667294032,0.0,-0.0098066499999988,9.80665
88,121.006,0.958,-0.0003855637424562735,0.00045688785174142967,-0.7075616353198525,-0.706651350527331,0.00025739217079822783,-2.919899437276558e-05,-0.00027433098268129873,0.0,-0.0098066499999988,9.80665
89,121.103,0.974,0.0004981078030289849,0.00023393780095620542,-0.7075527725064692,-0.7066593664325217,-0.007274981049528377,0.01707726546860407,0.00040046528265075986,0.0,-0.0098066499999988,9.80665
90,121.198,0.5823293172690763,0.0013635593166486093,1.5584658434583567e-05,-0.7075440924315061,-0.7066672170613167,-0.014652047605518703,0.03383101932409765,0.001061348222924457,0.0,-0.0098066499999988,9.80665
91,121.297,0.6197183098591549,0.0022723266077980062,-0.00032102220742678383,-0.7075304714840458,-0.7066784064615581,-0.014521719651326526,0.03527178091277958,0.0008228112729118731,0.0,-0.008094377777776638,10.034382205555543
92,121.403,0.5653923541247485,0.0032545525162841196,-0.0008273935754466554,-0.7075097638036894,-0.7066944131827436,-0.003918681249376426,0.015375628812414381,-0.0006736037099646464,0.0,-0.003969358333331709,10.58300979166671
93,121.507,0.5150905432595574,0.004180056417775211,-0.0013082326306819965,-0.7074895782950424,-0.7067101667925458,0.006331300121630476,-0.003926166568917445,-0.0020982560794516993,0.0,1.3611443551805595e-15,11.114587129352245
94,121.615,0.48490945674044267,0.0031185849856529037,-0.0009613388298737925,-0.7074755787847421,-0.7067291162474345,0.008872411911364498,-0.012374006134461617,-0.0012723734121117387,0.0,1.3852998623964441e-15,11.31183181437247
95,121.701,0.444,0.0022733392156295204,-0.0006851085810820533,-0.7074644310265399,-0.7067442056281791,0.010895889818004705,-0.019100989492210268,-0.0006147261029335717,0.0,1.404534803327613e-15,11.468897026518215
96,121.808,0.4357429718875502,0.0012415554772338608,-0.00034387151455422707,-0.7074685227131634,-0.7067429127830989,0.010943488106131315,-0.020662062942981216,-8.169344649646941e-05,0.0,1.4097541821830745e-15,11.51151648919999
97,121.912,0.4598393574297189,0.0002562792745749141,-1.4365890917791922e-05,-0.7074883989080689,-0.7067238934139404,0.008803370222449081,-0.01615257814526511,0.00018393835402096784,0.0,1.3982633179356358e-15,11.41768646199999
98,122.0,0.39271255060728744,-0.000577415973828758,0.0002644465598514821,-0.7075052172268351,-0.7067078001015755,0.00699250124394884,-0.012336860239505566,0.00040870372368955463,0.0,1.3885402789570342e-15,11.338291823599995
99,122.098,0.3825910931174089,-0.001053342160661545,0.00033871757723103087,-0.7075082852366399,-0.7067039390062265,0.006492118176770392,-0.00976237894009898,-4.941140233346859e-05,0.0,1.3708645908861321e-15,11.193958877290834
100,122.203,0.4708249496981891,-0.0015531624689203724,0.00041302079526199856,-0.7075112228033605,-0.7067001159800158,0.005989838695799194,-0.00704139096113246,-0.0005560620287637517,0.0,1.351773501919556e-15,11.038068305577683
101,122.298,0.388,-0.001959827392786438,0.0004500119133899465,-0.7075115302782681,-0.7066988478055114,0.005746276685968041,-0.005723703121766447,-0.0008853923855349448,0.0,1.3288473528957149e-15,10.850862091999995
102,122.409,0.3752535496957404,-0.002375843684177499,0.0004539798756564865,-0.7075088382411776,-0.7067002101804577,0.005735469467937945,-0.0056694875694811315,-0.001102627164684247,0.0,1.2947206390103432e-15,10.572196325599984
103,122.498,0.359026369168357,-0.0027094062961937368,0.00045716139495127967,-0.707506679760988,-0.7067013025351443,0.005726804221048951,-0.005626017441973088,-0.0012768064020201647,0.0,1.267357778327479e-15,10.348761611999988
104,122.593,0.4178498985801217,-0.003031679019906729,0.00044228838469937364,-0.7075210783329968,-0.7066854823537161,0.005589743981516335,-0.005251644709819097,-0.000855907078682106,0.0,1.2417054792160206e-15,10.139294693625494
105,122.705,0.3935091277890467,-0.0034094092879768815,0.0004235573214039843,-0.7075391474609232,-0.7066657186474612,0.005419785937895465,-0.004788797753176627,-0.0003199439291263717,0.0,1.211695627086107e-15,9.894245654581685
106,122.805,0.49284253578732107,-0.004074653707448661,0.0003591699034366999,-0.707550368721282,-0.7066503774404629,0.009075211685151003,-0.007456380827352513,-0.00012083250749856276,0.0,1.1870514331667624e-15,9.693010539799996
107,122.9,0.47648261758691207,-0.005006002836529997,0.00025449745463911185,-0.7075565456154908,-0.7066379071341172,0.016022845551371633,-0.012802605703473136,-0.00018672237708233194,0.0,1.1656021401630775e-15,9.517863770799998
108,123.014,0.37678207739307534,-0.006057620276709324,0.0001360952070952513,-0.7075643367865206,-0.7066229341596566,0.02257980321006696,-0.017673593010739307,-0.0002134433863582061,0.0,1.1395645310666365e-15,9.30525055763054
109,123.096,0.4166666666666667,-0.006320309209542527,0.00010482482286275822,-0.7075727753849524,-0.7066120997401486,0.013979043789118115,-0.009623472358148689,0.0001589272931698804,0.0,1.1186030530394043e-15,9.134087100200802
110,123.215,0.4948875255623722,-0.006701528514507746,5.944463111073001e-05,-0.7075850216436522,-0.7065963766191553,0.001497453897742352,0.002059019808414605,0.0006993188890703435,0.0,1.0881833471218383e-15,8.885691351004011
111,123.335,0.5084388185654009,-0.006302584040319825,-4.183947749025449e-05,-0.7075837457937977,-0.7066009744254845,-0.0037451115521516688,0.007705623966829311,0.0005534204328616974,0.0,1.0718522987823818e-15,8.752338221343877
112,123.415,0.4935897435897436,-0.005794605142864983,-0.00012651553108273368,-0.7075786858719836,-0.7066103584595154,-0.004971304400400774,0.009574951226694335,0.00024272728317484673,0.0,1.0653965010572079e-15,8.699622632411062
113,123.52,0.5626373626373626,-0.005113421174841255,-0.0002335660145468924,-0.7076275828521522,-0.7065668557885355,-0.006478641659066229,0.01158096626715132,-0.0003738755656659894,0.0,1.0592009445756754e-15,8.649032074497988
114,123.623,0.5242290748898678,-0.004353001808169223,-0.00031251899081704513,-0.7080296701412188,-0.7061682677886733,-0.007306635806179962,0.010695572987378305,-0.0023101975142687746,0.0,1.067646307674084e-15,8.717993697590366
115,123.719,0.5553097345132744,-0.0036442614275818347,-0.000386106230835814,-0.708404431109669,-0.705796768293656,-0.00807835850640232,0.009870352066424974,-0.004114924767335098,0.0,1.075517714057065e-15,8.782268608433734
116,123.815,0.5398230088495575,-0.0029954699374011994,-0.0004270812870270435,-0.7085465899303451,-0.7056572164211914,-0.008158700948811144,0.009454770867093149,-0.0029646220887858694,0.0,1.0850724244767173e-15,8.86028873984064
117,123.935,0.5873015873015873,-0.0022294422424805477,-0.00045384096939541784,-0.7085498368453598,-0.705656737297525,-0.007740593808461933,0.00924252415914459,0.0006895287081125322,0.0,1.098278290528785e-15,8.968122819521916
118,124.015,0.6530612244897959,-0.0017307173048022526,-0.0004685038114339009,-0.7085519614565419,-0.7056563243130125,-0.007530267710887617,0.009001073833074299,0.002617695129423907,0.0,1.1070505988333167e-15,9.039754152822582
119,124.123,0.6380090497737556,-0.0011848146865989732,-0.00045446417108025366,-0.7085544036941235,-0.7056547702768934,-0.007974915236475016,0.007610621546665478,-0.00018877847281651046,0.0,1.1185566495180231e-15,9.13370818669355
120,124.222,0.5316742081447964,-0.0006844039532460386,-0.00044159450075607887,-0.7085566424119066,-0.7056533457437842,-0.008382508801596739,0.006336040284124243,-0.0027613792748698578,0.0,1.1291038626456691e-15,9.219832717741927
121,124.33,0.5358744394618834,-0.00024283039786010253,-0.00043195120078875875,-0.708544603724744,-0.7056657267147535,-0.0068342494462947795,0.005576074423928914,-0.002962215651435238,0.0,1.138694939275818e-15,9.298149801792826
122,124.415,0.5515695067264574,7.013136102513131e-05,-0.00042581844348636163,-0.7085303300850786,-0.7056800888360669,-0.004955294505837562,0.005186886268768024,-0.0022568147911492917,0.0,1.1456088800168472e-15,9.354606412350602
123,124.52,0.5977777777777777,0.00043645621336579367,-0.0004110029070484646,-0.7085159233975274,-0.7056945561874043,-0.0030769049422815485,0.004522226116387164,-0.0015789250377565654,0.0,1.1538662783919688e-15,9.422033187
124,124.611,0.5666666666666667,0.0006485079212760057,-0.00036051593289904133,-0.7085202099705871,-0.7056900692768452,-0.00375086391344673,0.0029899160866624134,-0.0019975570403039863,0.0,1.1595492601665177e-15,9.468438254800004
125,124.735,0.6269662921348315,0.0009374575012854882,-0.00029172049559653937,-0.7085260510151958,-0.7056839552448745,-0.004669225588440924,0.0009019331890157685,-0.002568000648170728,0.0,1.1672931034637045e-15,9.531671534000001
126,124.808,0.6674157303370787,0.0010277153473200343,-0.00026630424668873886,-0.708530811206047,-0.7056790733038876,-0.004258706958964346,0.0005140713516157008,-0.0013882856667039023,0.0,1.1705789526046946e-15,9.558502528400004
127,124.916,0.6768558951965066,0.0011166687833020913,-0.00023712344011542422,-0.7085385914585614,-0.7056711346787143,-0.0031203431878238774,0.000409962607314809,0.0012031478732824653,0.0,1.1747294988880502e-15,9.5923943108
128,125.015,0.6441048034934498,0.0011835219777441388,-0.00021108507523706727,-0.7085438453210323,-0.7056657656583689,-0.002081864928390903,0.00023170737465502597,0.003154767740772105,0.0,1.1784392464139592e-15,9.622686698192771
129,125.122,0.6359550561797753,0.0011144960000729778,-0.00018977903492541564,-0.7085314585525322,-0.7056783167031964,-0.0010077755085433867,-0.0007576351222324082,0.0011868951365306794,0.0,1.1815357187778526e-15,9.647971313855422
130,125.215,0.6104783599088838,0.0010545014587326205,-0.00017126070082276433,-0.7085206924827142,-0.7056892255552426,-7.422115297494323e-05,-0.0016175309372841414,-0.0005234988092119438,0.0,1.1842270452249751e-15,9.669947662048193
131,125.326,0.6241457858769932,0.0009233766264162957,-0.00019230453429195597,-0.7085099381643913,-0.7057001824931225,0.002024040694647627,-0.002064632517950863,-0.0006983098573983478,0.0,1.1870713349263884e-15,9.693173049999999
132,125.415,0.6171171171171171,0.0007923910851842011,-0.00022791638424638763,-0.7085022254307561,-0.7057080716731374,0.004133799676815823,-0.0021715562648346905,-2.7780236753912517e-05,0.0,1.1891920923577864e-15,9.710490348611112
133,125.524,0.6284403669724771,0.0006195212931443682,-0.00026401390965516056,-0.7084968463632232,-0.7057136428086515,0.006306427636093671,-0.002391923372934184,0.0004649549683240479,0.0,1.191534841360836e-15,9.72962034596774
134,125.612,0.6123853211009175,0.0004291442662595087,-0.0002624759100087691,-0.7085091027390235,-0.7057014434202541,0.0063820033214024895,-0.0029347884326031155,-0.0004779283499960256,0.0,1.1923871414115547e-15,9.736579904032258
135,125.713,0.6270783847980997,0.00021064336040300886,-0.0002607107058691606,-0.7085231697157942,-0.7056874418494798,0.00646874359658648,-0.003557849466995904,-0.0015601012494316302,0.0,1.1933653494243117e-15,9.744567578629033
136,125.815,0.6555819477434679,-4.0274771938175613e-05,-0.0002632155955235349,-0.7085282087900595,-0.7056823812091686,0.0062963015704203245,-0.003586949665084734,-0.0016211252240189396,0.0,1.194339286785419e-15,9.752520380708662
137,125.922,0.6273148148148148,-0.0003248241603846363,-0.000268866349143936,-0.7085270312942783,-0.7056834743030078,0.005932057038037567,-0.0031943376025727714,-0.0009575955346080127,0.0,1.1953511261799196e-15,9.760782676377953
138,126.024,0.6134259259259259,-0.0005889012000464867,-0.00027428848597038576,-0.7085266095827039,-0.7056837843306186,0.005498766384231324,-0.0029002310257647402,-0.0002573831002151747,0.0,1.1962424920290073e-15,9.76806123089431
139,126.106,0.6216216216216216,-0.0007701918885210947,-0.00027880058526022125,-0.7085292986030863,-0.7056808705949311,0.004778532882985829,-0.0030101662827277022,0.0005980214147593306,0.0,1.1966428147801024e-15,9.771330114227641
140,126.215,0.6361556064073226,-0.0010111758524690877,-0.0002847983757796377,-0.7085328730326191,-0.7056769974584685,0.0038211493264520315,-0.003156299734056541,0.0017350835139329389,0.0,1.197174951119973e-15,9.775675337195121
141,126.313,0.7113163972286374,-0.0011914068472262476,-0.0002735951475312486,-0.7085307891605793,-0.7056788199631424,0.0030280753179261245,-0.003281412381006196,0.0022966514345228875,0.0,1.1976465276011557e-15,9.779526051388888
142,126.415,0.7043879907621247,-0.0013539280711611123,-0.0002505168234211818,-0.7085249755126212,-0.7056843665257009,0.002249203441250622,-0.00340731559036714,0.0025641493525149213,0.0,1.1981326337989142e-15,9.783495409722223
143,126.535,0.7887640449438202,-0.001541789082494336,-0.00020649103992912421,-0.7085205563364289,-0.7056884463979911,0.001543316386086516,-0.003581691422989682,0.002805444322167391,0.0,1.1985663167792674e-15,9.7870367
144,126.615,0.7919463087248322,-0.001660041733688877,-0.00014183918266950923,-0.7085226736046529,-0.7056860504488572,0.001512940757978993,-0.0037528649963677815,0.002812740505190499,0.0,1.1985663167792674e-15,9.7870367
145,126.716,0.7760532150776053,-0.0018093357058219866,-6.0216212879244296e-05,-0.7085253466557859,-0.7056830255630757,0.001474591527493245,-0.0039689716327576344,0.002821951936257173,0.0,1.1985663167792674e-15,9.7870367
146,126.815,0.8292682926829268,-0.0019304796595622066,5.5939569980870405e-06,-0.7085220267385122,-0.7056860449676167,0.0009352637127795744,-0.0035905896331227963,0.001899587034824349,0.0,1.1988522616014783e-15,9.789371616666667
147,126.918,0.8366013071895425,-0.0020394807593478188,6.446255891003175e-05,-0.7085145556583472,-0.7056932333886767,3.483823462688317e-05,-0.0027977829828621484,0.0003100879608637975,0.0,1.1993431335462738e-15,9.793379890277778
148,127.015,0.8468271334792122,-0.002136843719171203,0.00011625334378381644,-0.7085070286784357,-0.7057005103443885,-0.0007364834328332289,-0.002058336442719512,-0.0012182563603404229,0.0,1.1997672850325534e-15,9.79684335
149,127.135,0.8822222222222222,-0.00218450687172803,0.00013010945133294077,-0.7084909578828738,-0.7057164943682676,-0.0006357452084851078,-0.0012423361861897714,-0.0035416613362970863,0.0,1.1997672850325534e-15,9.79684335
150,127.215,0.8133333333333334,-0.0022162823067659134,0.0001393468563656898,-0.7084802440191658,-0.7057271503841869,-0.0005685863922530311,-0.0006983360151699765,-0.0050905979869347705,0.0,1.1997672850325534e-15,9.79684335
151,127.33,0.8644444444444445,-0.002243886210052765,0.000129781448744092,-0.7084942323409535,-0.7057130212134306,0.00034977055332844015,-0.0004295169290496539,-0.0038038757940442227,0.0,1.1997672850325534e-15,9.79684335
152,127.415,0.8240534521158129,-0.002257164553923067,0.00011370612392105675,-0.7085161569617474,-0.7056909697442192,0.00135251842912266,-0.0004331220616911176,-0.0014678598734069398,0.0,1.1997672850325534e-15,9.79684335
153,127.512,0.8819599109131403,-0.0022676313350064817,9.482684523383757e-05,-0.7085387538063044,-0.7056682524164427,0.0023668539269560665,-0.00038704771694967477,0.0009207044861414598,0.0,1.1997672850325534e-15,9.79684335
154,127.615,0.9070796460176991,-0.0022032759453770342,6.617181515478383e-05,-0.7085237261659014,-0.7056835430365138,0.001350680287179212,0.00047015188395174734,-0.0010079156242181935,0.0,1.1997672850325534e-15,9.79684335
155,127.715,0.8163716814159292,-0.0021407949845717363,3.835139760230059e-05,-0.7085091362237624,-0.7056983882987188,0.00036410393788115746,0.0013023845061862537,-0.002880362333305496,0.0,1.1997672850325534e-15,9.79684335
156,127.815,0.8336980306345733,-0.0020415571674855595,-5.624488776438349e-06,-0.7085026794107236,-0.70570515401115,-8.947478674084468e-05,0.0016972715409836149,-0.0028897025251383187,0.0,1.2000591538112404e-15,9.79922663944223
157,127.93,0.8388520971302428,-0.0019004083498987633,-6.807500035556803e-05,-0.7085012339255672,-0.7057069941245876,-0.00021920600092963379,0.0018298350802374232,-0.0015306023146169534,0.0,1.2006093982300765e-15,9.803719726095617
158,128.011,0.7959641255605381,-0.0018017958474242923,-0.00010943514734399059,-0.7085012876342818,-0.70570720920983,-0.00026180610060691674,0.0019010990615934127,-0.0006513591269031171,0.0,1.2009682532858392e-15,9.80665
159,128.121,0.6883408071748879,-0.0016815488746543465,-0.00012101360948289612,-0.7085195552687464,-0.7056891510829537,0.0005083261546679812,0.0016226065475493318,-0.0007820118982345033,0.0,1.2009682532858392e-15,9.80665
160,128.215,0.7880184331797235,-0.0015787923706509575,-0.0001309079316743226,-0.7085351657927436,-0.705673719592714,0.0011664391728118618,0.0013846220355480706,-0.000893660630099485,0.0,1.2009682532858392e-15,9.80665
161,128.314,0.7142857142857143,-0.0014829409445284943,-0.00013303222404090467,-0.7085413210934642,-0.7056677478508655,0.0015325794999346315,0.0011766774820866932,-0.0008548957708831714,0.0,1.2009682532858392e-15,9.80665
162,128.407,0.7775175644028103,-0.0014007774082374514,-0.00012974403170707026,-0.7085405526999611,-0.7056686854953755,0.001668284208231156,0.0010085294651889275,-0.0007189030406619552,0.0,1.2009682532858392e-15,9.80665
163,128.515,0.7096018735362998,-0.001305656950816083,-0.0001256235943459981,-0.7085397055268836,-0.7056697277872306,0.0018158244148997686,0.0008098004993882966,-0.0005442269443735419,0.0,1.2009682532858392e-15,9.80665
164,128.61,0.7939110070257611,-0.0012310764245975216,-0.00011270479307323174,-0.7085403505127479,-0.7056692103841902,0.0016361228402026352,0.0005284601972584129,0.00012507709416703747,0.0,1.2009682532858392e-15,9.80665
165,128.726,0.7551963048498845,-0.0011400096767938423,-9.693025678228148e-05,-0.7085411380744348,-0.7056685786078463,0.00141669775951991,0.00018492888097364376,0.0009423325517530918,0.0,1.2009682532858392e-15,9.80665
166,128.811,0.7938388625592417,-0.0010940093496290364,-8.607258334328952e-05,-0.7085430689756258,-0.7056667152258493,0.0010519917843685197,0.0005244702000970278,0.0015929942615220476,0.0,1.2009682532858392e-15,9.80665
167,128.916,0.7701421800947867,-0.001049764378920559,-7.308569196526422e-05,-0.7085462757126413,-0.7056635635969516,0.0004777314939669201,0.0013026909104415353,0.0024281921713346878,0.0,1.2009682532858392e-15,9.80665
168,129.022,0.8283062645011601,-0.0010009997888418066,-6.174565211969815e-05,-0.7085486511092599,-0.7056612512261111,-0.00020349924228177672,0.0018206096102809774,0.00287667039527486,0.0,1.2010454239366527e-15,9.807280146184738
169,129.124,0.7976744186046512,-0.0009318926884610765,-6.041698313414732e-05,-0.7085462717354408,-0.7056637312627659,-0.0014084228847444811,0.0008699210116595107,0.0011719590657013343,0.0,1.201537386835589e-15,9.811297328112449
170,129.211,0.780373831775701,-0.000872948396959856,-5.928370664647143e-05,-0.7085442422695363,-0.705665846588148,-0.002436151873904015,5.9039559894009724e-05,-0.0002820594212880872,0.0,1.2019570022493878e-15,9.814723747991968
171,129.318,0.7967289719626168,-0.0008406830995651502,-6.6872496716253e-05,-0.7085382232346215,-0.705671931304672,-0.002808669481426439,-0.000420863075414691,-0.0008764973395736517,0.0,1.2018665775392969e-15,9.813985374199998
172,129.412,0.8888888888888888,-0.0008370209918393715,-7.905063149889789e-05,-0.7085307739011875,-0.7056794138490897,-0.002588958095759128,-0.0005250116006936998,-0.0006662241838639363,0.0,1.2014150134760614e-15,9.810298073799999
173,129.521,0.868663594470046,-0.0008373323997095542,-8.978654639177141e-05,-0.7085236588605901,-0.7056865560538633,-0.0020152508322315993,-0.0006016410833942924,-0.00042445389832087524,0.0,1.2009682532858392e-15,9.80665
174,129.607,0.8055555555555556,-0.0008584806436014125,-8.273097059549039e-05,-0.7085250297253615,-0.7056851545865345,-9.995970471064677e-05,-0.00045968153084773196,-0.00024313322746709822,0.0,1.2009682532858392e-15,9.80665
175,129.718,0.8148148148148148,-0.000885776632810665,-7.362435532354844e-05,-0.7085267990973337,-0.7056833457159125,0.002372102099414645,-0.0002764546665144243,-9.103059272162696e-06,0.0,1.2009682532858392e-15,9.80665
176,129.806,0.8620689655172413,-0.0008939330465053497,-8.091751062225746e-05,-0.7085274167405996,-0.7056827145787448,0.0029241814454758906,0.0001764469737466312,-0.0004019271132580186,0.0,1.2009682532858392e-15,9.80665
177,129.915,0.8682352941176471,-0.0008924734116534568,-0.00010239606992338587,-0.708527508537248,-0.7056826213493145,0.0024008338170295783,0.0010012346954846336,-0.0013844483553177233,0.0,1.2009682532858392e-15,9.80665
178,130.018,0.9105882352941177,-0.0008923036550743134,-0.0001192870579707141,-0.7085275885664452,-0.7056825389278713,0.0018069742316936472,0.001588265193277077,-0.00209863121164103,0.0,1.201021522039009e-15,9.807084972379032
179,130.135,0.8375870069605569,-0.0009036019068607743,-0.00010612238595249208,-0.7085276156833986,-0.7056824992288896,0.00018881124654617225,0.0004276187391952589,-0.0008743737613963502,0.0,1.2015881078681801e-15,9.811711496774192
180,130.216,0.91415313225058,-0.0009114237734821726,-9.700838224756642e-05,-0.7085276344566741,-0.7056824717449792,-0.0009314554354793352,-0.00037590572901546947,-2.681091122670471e-05,0.0,1.201980359596068e-15,9.814914475201613
181,130.325,0.8974358974358975,-0.0009424061737505297,-6.872053672609662e-05,-0.7085321221355579,-0.7056779262328295,-0.0005277359066531981,-0.001334556993097011,0.0005534205259755088,0.0,1.2018329504282048e-15,9.813710788
182,130.415,0.8951048951048951,-0.0009773985804727972,-3.799245192058222e-05,-0.708537880386857,-0.705672099016772,0.0006848304811864631,-0.0020696887094527206,0.0007747506094165066,0.0,1.201400601857022e-15,9.810180394
183,130.519,0.8240740740740741,-0.0010153944044075144,-1.1791355061706864e-05,-0.7085431834087553,-0.7056667241521933,0.0019540335685015128,-0.002689445410389371,0.0010187404602766204,0.0,1.2009682532858392e-15,9.80665
184,130.615,0.9221967963386728,-0.00103598926529287,-4.2833558124353653e-05,-0.7085400618357198,-0.7056698259909057,0.002342399507761057,-0.0018983024475163588,0.0011741217225790246,0.0,1.2009682532858392e-15,9.80665
185,130.726,0.9107551487414187,-0.0010598020731915592,-7.872610541553442e-05,-0.7085364525168976,-0.7056734124919168,0.0027914476250298467,-0.0009835433966945556,0.0013537813071161568,0.0,1.2009682532858392e-15,9.80665
186,130.814,0.8276643990929705,-0.001077482404409585,-9.641695271316658e-05,-0.7085368776190284,-0.7056729569150514,0.002300052021122919,-0.00062239393977623,0.0018832779190103535,0.0,1.2009682532858392e-15,9.80665
187,130.917,0.9272727272727272,-0.0010974870417011296,-0.00011093037741847844,-0.7085392659573982,-0.7056705257822338,0.0012373809773375147,-0.0004091344412050339,0.002725710593430059,0.0,1.2009682532858392e-15,9.80665
188,131.014,0.9,-0.001113330050399098,-0.00012457904647571172,-0.7085414241890012,-0.7056683321923924,0.00029557193762689123,-0.0002282937170692707,0.0032812746486673866,0.0,1.2009682532858392e-15,9.80665
189,131.135,0.8236658932714617,-0.0010850372865958908,-0.00014129495135705567,-0.7085426572481133,-0.7056671343091614,6.633699297940834e-05,-0.0003234088273829199,0.00016047436571953178,0.0,1.2009682532858392e-15,9.80665
190,131.215,0.8631090487238979,-0.0010663313270565745,-0.0001523467892951378,-0.7085434724938072,-0.7056663423202484,-8.522330100244616e-05,-0.0003862948507308069,-0.001902864664329285,0.0,1.2009682532858392e-15,9.80665
191,131.335,0.875,-0.0010781954706500618,-0.00013681689980207977,-0.7085366685373856,-0.7056731579984757,0.0004270833138144221,-0.0007045038620708793,-0.002029027390293686,0.0,1.2009682532858392e-15,9.80665
192,131.415,0.8935185185185185,-0.0010999179494929764,-0.00011535466543618865,-0.7085293553527378,-0.7056804709833316,0.0010245326965813845,-0.0009941037854877936,-0.0010859402744100462,0.0,1.2009682532858392e-15,9.80665
193,131.519,0.8337182448036952,-0.0011255673863716075,-9.160339000541727e-05,-0.7085215972927122,-0.7056882249555158,0.0017138771477166557,-0.001240699562087319,-2.310860464238441e-05,0.0,1.2009682532858392e-15,9.80665
194,131.619,0.8568129330254042,-0.0011327990571009,-9.66958220087752e-05,-0.7085259102735701,-0.7056838822779044,0.00178884467262166,-0.0006035908214159965,-9.949263964456659e-05,0.0,1.2009682532858392e-15,9.80665
195,131.725,0.9464285714285714,-0.0011404646280739502,-0.00010209379993233462,-0.7085304820332796,-0.7056792790396362,0.001868310249020965,7.1744443695609e-05,-0.00018045971674688014,0.0,1.2009682532858392e-15,9.80665
196,131.815,0.8253968253968254,-0.0011413594484983745,-0.00010467303081132149,-0.7085352300075782,-0.7056745100223397,0.0019717952217906615,0.00023667320678942392,-0.00025102389743551036,0.0,1.2009682532858392e-15,9.80665
197,131.91,0.8390022675736961,-0.001139034709707852,-0.00010622849633893564,-0.7085407462651693,-0.7056689748629643,0.002102003146894265,0.00017288228916004862,-0.00032656738883815036,0.0,1.2009682532858392e-15,9.80665
198,132.006,0.9094922737306843,-0.0011366854999826925,-0.00010780033518789318,-0.7085463205886299,-0.7056633814387534,0.0022335816817358072,0.00010841988818720299,-0.0004029060748871378,0.0,1.2009682532858392e-15,9.80665
199,132.114,0.8962472406181016,-0.001169519991663469,-8.389213906854391e-05,-0.7085452223082508,-0.7056644322543152,0.0019569045224700093,-0.00018602934834499455,0.0007615435651162142,0.0,1.2009682532858392e-15,9.80665
200,132.212,0.8631090487238979,-0.0011996151163018807,-6.197991659015577e-05,-0.708544163224771,-0.7056654480475761,0.0017022439489899892,-0.00045509682322808774,0.0018287771519914808,0.0,1.2009682532858392e-15,9.80665
201,132.311,0.9164733178654292,-0.0011978220937345467,-5.837403684121313e-05,-0.7085395170582599,-0.7056701166618684,0.0016874363891728613,-6.059474317227846e-06,0.0017227176048112806,0.0,1.2009682532858392e-15,9.80665
202,132.415,0.854875283446712,-0.0011699686164405902,-6.953298956026135e-05,-0.7085317514774001,-0.7056779592073136,0.001867451592333663,0.0010471217224347785,0.0006560945170987836,0.0,1.2009682532858392e-15,9.80665
203,132.522,0.8648648648648649,-0.0009073211439740987,-0.00037398793646803186,-0.7085259102197384,-0.7056826339995499,0.002698759946702473,0.007975859632974185,-0.00024096417999603992,0.0,1.2011225945874662e-15,9.807910292369476
204,132.611,0.811529933481153,0.00041808732510476357,-0.002013205863456133,-0.708531214762087,-0.7056704663922051,0.006446744921246579,0.04139093390430004,-3.9398622859001305e-05,0.0,1.201981118077767e-15,9.814920668674699
205,132.7,0.6353467561521253,0.0017434957941836256,-0.0036524237904442345,-0.7085365193044356,-0.7056582987848603,0.010194729895790684,0.0748060081756259,0.0001621669342780373,0.0,1.2028396415680676e-15,9.82193104497992
206,132.798,0.6353467561521253,0.00445314460525053,-0.0069288133113046884,-0.7085092198022284,-0.70562338646187,0.013214130558279727,0.10650362781149697,-0.00015344702626727397,0.0,1.2056154782659456e-15,9.844597471739133
207,132.916,0.5912087912087912,0.009641237327878657,-0.013139975684421412,-0.7084253092059328,-0.7055482149321137,0.015143924985419494,0.13682099634950612,-0.0013613744575360332,0.0,1.2117769675654113e-15,9.894909849999998
208,133.015,0.6131868131868132,0.013994746468577979,-0.01835022535662345,-0.7083475125037342,-0.7054808846192762,0.016475029361074343,0.1587043289215392,-0.0022604808191612705,0.0,1.2169198235532718e-15,9.936904456048378
209,133.112,0.6017316017316018,0.01827044400818411,-0.02344478314153288,-0.7081760320049144,-0.7053600225984594,0.014071076837999477,0.13439976207671903,-0.0016692302362513512,0.0,1.2216171590600758e-15,9.975261111290319
210,133.21,0.6215644820295984,0.022590220903868866,-0.028591862140719973,-0.7080027836659007,-0.705237914577428,0.011642341299222696,0.1098446326871057,-0.0010718842865072803,0.0,1.2263629207061255e-15,10.014013195967745
211,133.311,0.5952380952380952,0.025727332376014073,-0.03239217751002678,-0.7078575610936392,-0.705134982782773,0.009647654024883998,0.08633447647094578,0.0001318534859457162,0.0,1.229383162158582e-15,10.038675339000001
212,133.412,0.6385281385281385,0.02776470638231213,-0.03493432825124774,-0.7077402139253298,-0.7050512156143528,0.008078171774744895,0.0643269820213305,0.0018274614987895807,0.0,1.2308387356815645e-15,10.0505609988
213,133.495,0.5581896551724138,0.0294389840310521,-0.037023422424726324,-0.707643780113749,-0.7049823772482254,0.006788399232551388,0.04624161529540922,0.00322088194498799,0.0,1.2320349000618372e-15,10.0603284222
214,133.6,0.5384615384615384,0.030721956432341085,-0.038663168023633156,-0.7075352986759369,-0.7049469161257486,0.005325001422315918,0.03942440992593793,0.002593583352863835,0.0,1.2330965559977417e-15,10.068997500799998
215,133.695,0.5692307692307692,0.03179432470217337,-0.0400405444189288,-0.7074385795264821,-0.7049202979691057,0.0040187877044082655,0.03495703539252314,0.001772976615466234,0.0,1.234009291870239e-15,10.0764505548
216,133.792,0.5484581497797357,0.03259166082030866,-0.04106076539631785,-0.7073673525069446,-0.7048993121049986,0.002786119095162561,0.025819118483923143,0.0010481381145836972,0.0,1.2347642505384609e-15,10.082615260156249
217,133.895,0.589041095890411,0.03290284329884576,-0.041449305271203316,-0.7073412501764915,-0.7048881703499978,0.0016590075302928028,0.007881690777138017,0.0004818595765527236,0.0,1.235247452609119e-15,10.086560904492188
218,133.995,0.5205479452054794,0.03320496221004678,-0.041826528450703705,-0.7073159081080904,-0.7048773531121331,0.000564724457603871,-0.009533287578961595,-6.792541182678506e-05,0.0,1.2357165808330587e-15,10.090391627148438
219,134.095,0.5518763796909493,0.032572358168136716,-0.04113206065514711,-0.7073571455295207,-0.704904991422505,-9.306091307413378e-05,-0.015882314332289465,-0.0015986987941518978,-0.003349596502057618,1.2366167471580645e-15,10.097742043004116
220,134.198,0.5526881720430108,0.031723583247029806,-0.040190670765805084,-0.7074136659394608,-0.7049415716129064,-0.0006784946067736493,-0.020087296074187758,-0.003382348471657662,-0.0075063246913584635,1.237634851932455e-15,10.106055499382718
221,134.295,0.5735930735930735,0.031046999965645226,-0.039642062753768595,-0.7058725628292937,-0.7065279952363616,0.0026600752596499374,-0.018962850415276303,-0.05994405686014293,-0.008268351960784593,1.238951817845644e-15,10.116809342156863
222,134.385,0.5043859649122807,0.030581535967305805,-0.039579862234531915,-0.7023347046899139,-0.7100519007248747,0.010900807665094674,-0.011197033038080027,-0.18498699713096298,-0.004807181372549106,1.2406473024385182e-15,10.130654024509804
223,134.499,0.38596491228070173,0.02999194823607587,-0.03950107491016546,-0.6978534177133662,-0.7145155143436579,0.021339068711991344,-0.0013603310269647458,-0.34337472147400167,-0.00042303196078415616,1.242794916256159e-15,10.148190622156863
224,134.599,0.33763440860215055,0.030695369667051636,-0.03927389959390216,-0.6903774437244915,-0.7216216195808537,0.009369790707952845,0.0024442856065122875,-0.2675338154500909,-0.0036982705508471123,0.00739654110169547,10.168374102754235
225,134.695,0.37044967880085655,0.03151548092121858,-0.039037056774401384,-0.6827798860380124,-0.7288220571655611,-0.004627309838244966,0.005524333616865238,-0.16924283255713704,-0.007687416313558817,0.015374832627118883,10.188319831567794
226,134.799,0.42764578833693306,0.03225691140257405,-0.03877009659162546,-0.6775186889674751,-0.733766683313149,-0.010533459220524089,0.005963343270105193,-0.101534286249872,-0.011798038697317938,0.01961330000000125,10.20887294348659
227,134.895,0.40401785714285715,0.03281071616196277,-0.03851445142649438,-0.6752998309153796,-0.7357942643197197,-0.007762482104344746,0.0037947107829916296,-0.07347428025071093,-0.015405082375479055,0.019613300000001253,10.226908161877395
228,134.992,0.34151785714285715,0.03337028972092833,-0.038256143290893246,-0.6730578597585753,-0.7378429659617751,-0.004962640643205885,0.0016034883741378354,-0.045121982522398865,-0.01904969942528679,0.019613300000001256,10.245131247126434
229,135.098,0.319634703196347,0.03355074515750607,-0.03819162792247248,-0.6719599126299873,-0.7388395042299051,-0.0020737480055538593,0.00027674195822319073,-0.030565541248767654,-0.0196133,0.01961330000000126,10.265797353000002
230,135.196,0.2422062350119904,0.03365189348065408,-0.03816516704869048,-0.6711508735675822,-0.7395715197915926,0.0005710969548670536,-0.0007871477538719032,-0.019611009348184657,-0.0196133,0.019613300000001263,10.285018387
231,135.295,0.2890625,0.033631492737546724,-0.038151136619567746,-0.6705369672444392,-0.7401306799008944,0.002938341085675292,-0.0017808333677930212,-0.011826519775821928,-0.0196133,0.019613300000001263,10.301472291566263
232,135.415,0.3268608414239482,0.0333682493260573,-0.038158842245131885,-0.6701885858203376,-0.7404575781215805,0.005215066614145426,-0.002827576151674894,-0.008776459663388492,-0.0196133,0.019613300000001263,10.31565058072289
233,135.495,0.33916083916083917,0.03319275371839767,-0.03816397932884131,-0.6699563315376031,-0.7406755102687046,0.006732883633125696,-0.0035254046742628923,-0.006743086255099295,-0.0196133,0.019613300000001263,10.325102773493976
234,135.599,0.4128787878787879,0.032872859892556235,-0.03803593778399216,-0.6698560289796217,-0.7407869789600326,0.006744028922170423,-0.008990245966240148,-0.004158917885506789,-0.023261373799999582,0.019613300000001263,10.330050523799999
235,135.695,0.4675925925925926,0.03256755596503283,-0.037903036732266526,-0.6697854559792549,-0.7408711111108441,0.006540101643651739,-0.014532325832172822,-0.0017799970845227926,-0.027027127399999726,0.019613300000001267,10.333816277399999
236,135.796,0.3933649289099526,0.03161177752466714,-0.037089383841103135,-0.6697626775325469,-0.7409704480532513,0.006227318685591613,-0.027819452620292923,-0.00016538729357261627,-0.02941995,0.02118866546184837,10.322030810843376
237,135.898,0.36879432624113473,0.02966923027179945,-0.03522991020401025,-0.6698189428080986,-0.7410874368807779,0.005760148061013013,-0.052721724647235346,9.727256300571445e-05,-0.02941995,0.02520584738955944,10.285876173493977
238,135.989,0.36904761904761907,0.027936173408946812,-0.03357096803758416,-0.6698691402598164,-0.7411918092661204,0.0053433585822222785,-0.07493845753401847,0.00033160635661972764,-0.02941995,0.028789803815262638,10.253620565662647
239,136.094,0.543859649122807,0.024723889900977666,-0.030415817290344593,-0.6699831769009417,-0.7413204314810118,0.00546589829958975,-0.08545905855298032,0.00046408583736048053,-0.02941995,0.029419950000001246,10.174634734600001
240,136.183,0.08,0.021816319687575823,-0.02755234868225668,-0.6700883876164903,-0.7414307025072715,0.0056617196835577425,-0.09207342082262018,0.0005553637719713236,-0.02941995,0.029419950000001235,10.101320219200002
241,136.286,0.0,0.02088207321886045,-0.025396377157337988,-0.6764607595046105,-0.7353627256117852,0.1084878757652091,0.02808580020072471,0.24537980588832878,-0.02941995,0.030635974600001458,10.016473083399996
242,136.375,0.0,0.024952948046255613,-0.025857289223937156,-0.6945112732634198,-0.7176856463347245,0.4032436419464798,0.3884214374423212,0.9480508812773399,-0.02941995,0.034127142000001394,9.943158567999996
243,136.39,0.5238095238095238,0.025639050545254182,-0.025934971032914474,-0.6975534946834411,-0.7147063633105035,0.45292158006687433,0.4491521628200641,1.0664785906124608,-0.02941995,0.034715541000000856,9.930802189000008
244,136.495,0.0,0.030441768038249377,-0.026478743695756292,-0.7188490446236133,-0.6938513821409337,0.8006671469100121,0.8742672404647244,1.8954725559592032,-0.02941995,0.03883433400000156,9.844307535999993
245,136.596,0.04,0.07407680244369187,-0.055177042126716314,-0.7444610039350572,-0.655155108863481,0.7294880430698301,0.9492010569572481,1.5090798830985603,-8.396610636400752,9.891379456000886,7.747841898999811
246,136.694,0.27692307692307694,0.1205757915476965,-0.08602713042027171,-0.7698589549945394,-0.6156211716077261,0.6171674115657887,0.9862974667549107,1.0079396748543143,-17.40743137559935,20.501390223999238,5.498980921000159
247,136.797,0.15384615384615385,0.14418258115791757,-0.14385626926129558,-0.7776035688210774,-0.5881155164504339,0.7907756467660269,1.0757975975672405,0.4673956831296284,-19.203055141666667,22.578177183333334,5.3707753166666645
248,136.893,0.07317073170731707,0.13198496125020012,-0.23214548723244308,-0.7591708490629874,-0.5814919821574208,1.3473975842907315,1.2275907595952351,-0.05514095794586915,-10.487278208333334,12.229826516666668,8.277279583333332
249,136.998,0.06666666666666667,0.11864381447613596,-0.3287118193883726,-0.7390100618275791,-0.5742474915244388,1.9562028284582949,1.393614530563332,-0.6266654091221172,-0.9543971875012929,0.9113179750015341,11.45626862499957
250,137.095,0.4,0.17601602362014943,-0.39695131863669414,-0.712888112975943,-0.5353791607491747,1.2975558560775826,1.613349679483457,-0.43672455111744146,-1.239418777108378,0.824940124096342,10.27658151726915
251,137.197,0.5333333333333333,0.24384108126853293,-0.46645317405122855,-0.6846133868375324,-0.49104697674462555,0.4736389417545275,1.8515481235511841,-0.1597845039950334,-2.516882630120499,1.8493215156626652,8.59338228955821
252,137.291,0.2909090909090909,0.29877745686017965,-0.5175825992099954,-0.6603028514237802,-0.45034435958144625,-0.002388991336338276,1.7109464780101824,0.00041474893107057935,-3.839303474999943,2.634066189999982,7.017050341000059
253,137.393,0.34210526315789475,0.3445440828342904,-0.5494280819739145,-0.6371181151370161,-0.40645669974212323,-0.0007818836281076004,0.8996585910050163,0.0004393494522663595,-5.539776585000007,3.194222038000003,5.260561646199992
254,137.489,0.23684210526315788,0.3876185543393358,-0.5794003010458383,-0.6152971868671205,-0.36515066695217213,0.0007306883325800943,0.13609352088250692,0.000462502883980035,-7.140221865000068,3.721427542000023,3.6073958157999293
255,137.589,0.5813953488372093,0.3963984901155449,-0.5844707417349332,-0.609927285233897,-0.35949687038281364,0.0013213668940588769,0.00022830099239946671,0.0003325829808600272,-7.560377977599998,3.7431590784000015,2.197905624600021
256,137.689,0.5,0.3977866404535281,-0.5841850311667924,-0.6081130937655069,-0.3614978503874641,0.0017103154202922897,-0.0005555207617580319,0.00017111311340705743,-7.725129697599988,3.6568605584000067,0.8524332446000975
257,137.788,0.4166666666666667,0.39421945474652476,-0.5869817276190845,-0.6090360731607868,-0.3588606576886553,0.00146252777799947,-0.0016628222893925197,0.21888565350890016,-7.89325490520002,3.622890322800008,-0.04401224519999877
258,137.884,0.5476190476190477,0.3807277154461763,-0.5959460952179185,-0.6154515361980871,-0.34692710978288777,-6.262168660737524e-05,-0.003409245146438116,0.8753538291285713,-8.066479570799974,3.6944396411999896,-0.028949230800002668
259,137.988,0.36585365853658536,0.3661116645374598,-0.6056574934499925,-0.6224016211551652,-0.3339990995516346,-0.0017148669399320972,-0.005301203241571578,1.5865276860501571,-8.254139625199999,3.7719514027999996,-0.012630965200000573
260,138.092,0.32142857142857145,0.33319516186725096,-0.6230623714232576,-0.6367038973319179,-0.3018566907839728,-0.001103900158312039,-0.0038470440534870785,1.1204555640182516,-8.003246291599957,3.9135594288000193,-0.003059674799999481
261,138.184,0.5625,0.3006883509053062,-0.6398834578472111,-0.650717184202469,-0.26986543607176977,-0.0001443911795504676,-0.0019411319652572236,0.49019147964196286,-7.700103126800008,4.050695622399996,0.004158019599999289
262,138.284,0.75,0.2751956642936492,-0.6530599389373012,-0.6616343903287681,-0.24498928377978452,0.0006036237007938334,-0.00045697716902941277,-0.0027250818135217836,-7.367304652400028,4.4897197295999005,0.00870830519999978
263,138.385,0.5,0.275006023501644,-0.6531037750452601,-0.6614550647087764,-0.24556816466878384,0.0005931442654691646,-0.0004837731081061042,-0.0015217694917229183,-7.022620518200031,5.68620948279989,0.0047464185999996685
264,138.486,0.4583333333333333,0.2748163827096387,-0.6531476111532191,-0.6612757390887846,-0.24614704555778316,0.0005826648301444958,-0.0005105690471827956,-0.0003184571699240534,-6.677936384000034,6.882699235999879,0.0007845319999995586
265,138.588,0.6071428571428571,0.27462931029752796,-0.653033589085166,-0.661398085668207,-0.24632967452401294,0.0005969866691157209,-0.0004906725920736809,-7.569467416033178e-05,-6.6032489376,7.135710805999999,-8.738725398209078e-16
266,138.684,0.3870967741935484,0.27445426275017515,-0.6528899373948587,-0.661582893398763,-0.24640928321149,0.0006161831272765988,-0.00046116713061928835,-7.044648518785843e-05,-6.595717430400001,7.154539573999999,-8.761783988672167e-16
267,138.787,0.5161290322580645,0.2742897613175471,-0.6527437690249989,-0.6617794251930651,-0.2464521196586548,0.0006235258565284299,-0.0004553702580742569,-7.243190100416648e-05,-6.5888527753999995,7.1674451254,-8.777588730885409e-16
268,138.884,0.4594594594594595,0.2741858280951277,-0.6526235215602719,-0.6619606775043345,-0.24639933267030095,0.0006014517406001719,-0.00050647431239485,-9.096064558252416e-05,-6.5850477952,7.1636401452000005,-8.772928974062661e-16
269,138.984,0.475,0.27407868044314887,-0.6524995551017905,-0.6621475355571896,-0.2463449130946784,0.0005786949200555663,-0.0005591589044779585,-0.00011006244411692182,-6.5811251352,7.1597174852,-8.768125101049517e-16
270,139.085,0.4782608695652174,0.2849878513920417,-0.6474639663983359,-0.6578025099339256,-0.25738874231338815,-2.1333590149937715e-05,-0.0005535520862322828,-0.44465544577808747,-6.5771632486,7.152656697199999,-8.759478129625858e-16
271,139.187,0.5531914893617021,0.29910354544390755,-0.6409975329752472,-0.6521393997025462,-0.27166332149801214,-0.000789589855820028,-0.0005313478114550293,-1.0186200085085073,-6.5731621354,7.144654470799999,-8.749678228679046e-16
272,139.284,0.31746031746031744,0.3206876488952819,-0.6293357874674071,-0.6418115096381445,-0.2934373879912393,-0.0047788269054134195,3.989594569395812e-05,-1.4068746128082275,-5.8345644840002215,6.34074453040024,-7.765172493365741e-16
273,139.388,0.1111111111111111,0.3653900119541283,-0.6022683259467053,-0.6176799344340711,-0.3384461124770125,-0.017665668522939704,0.0021058678994885847,-1.406816888809204,-3.1012549959998688,3.374899757599857,-4.133060185587844e-16
274,139.488,0.14285714285714285,0.4083730533568572,-0.576241920638343,-0.594476496737851,-0.38172373217486333,-0.030056862385943448,0.00409237939352151,-1.4067613849639893,-0.47307279600001806,0.5231259376000192,-6.40644505032822e-17
275,139.585,0.0,0.12299738084558043,-0.23909363014474205,-0.24248207558349483,-0.11447016646060443,-0.04375798362066162,0.011038740206346914,-1.426488031429125,-0.0030865551792831117,0.01289320517928311,-0.012346220717132449
276,139.695,0.0,-0.28513411530640775,0.2238302828828782,0.24182119353783538,0.2685018474454586,-0.059729853207132616,0.020213003014306032,-1.4539694249392479,-0.007384290239043408,0.017190940239043405,-0.029537160956173633
277,139.8,0.1111111111111111,-0.3229291318694812,0.3345883746606818,0.35417664555182526,0.3027498369222016,-0.036389397958430277,0.03709319133655791,-1.466158885074906,-0.013193685742972455,0.016226264257027542,-0.030759010642568866
278,139.895,0.1111111111111111,0.10179319143951515,0.0028336624714067615,-0.0006715112302254633,-0.09847926918248723,0.03506558496191434,0.06296244292823144,-1.4588680712573494,-0.020676671686747607,0.008743278313252391,-0.01205154578313098
279,140.008,0.0,0.597076313947391,-0.3859288024699848,-0.4162958409457268,-0.5663420423704598,0.1176211158195466,0.09244430517311766,-1.4397341094016523,-0.02926304359999925,-0.00031381280000149697,0.011454167200007867
280,140.103,0.2222222222222222,0.5509356894242572,-0.4397593606825034,-0.46437880102953144,-0.5216083799908953,0.07325727947847524,0.057089298467614236,-0.9355110881328136,-0.02180998959999934,-0.015219920800001308,0.08971123420000693
281,140.208,0.5,0.49993815705658723,-0.49925629344370304,-0.5175231253326793,-0.47216591104506506,0.024223565627821644,0.01801271210890326,-0.37821195936203966,-0.013572403600000144,-0.03169509279999969,0.1762058871999985
282,140.295,1.0,0.48246529498410234,-0.5206033295347526,-0.5364732692055879,-0.4557089613828872,0.0016231772360807651,0.0004446336365561929,-0.10405637001190145,-0.9436832957828456,0.7809874277105913,0.18041872951808305
283,140.407,0.125,0.49923742588428416,-0.5037988445302236,-0.5211252361144061,-0.47335706517425385,0.0010919631150247545,0.00129326011510538,-0.048371482469615465,-3.6255854580324485,3.136473866265341,0.0789651937750879
284,140.495,0.9230769230769231,0.5124155287344234,-0.4905953205980974,-0.5090660672570523,-0.48722343243889527,0.000674580591338005,0.0019600380625366997,-0.004619070829260011,-5.73279429979941,4.987213210843561,-0.0007482985943861875
285,140.612,0.9230769230769231,0.5137910501878356,-0.48905737127115056,-0.5077714837780254,-0.48888620811604583,0.000644207628543621,0.000965662077457381,0.0001397116817922114,-7.617004065277705,2.99063909722232,0.5689802763888631
286,140.696,1.0,0.513695282153587,-0.48902789364563926,-0.5078309719644317,-0.4889545481015182,0.0006575980681061205,0.00012554729861832922,-2.7567997070330368e-05,-8.908212981944372,1.2581309305556534,1.0233550597221965
287,140.797,1.0,0.5136313318992041,-0.4889036407313073,-0.5075118466006915,-0.4894751282634508,0.0006619371334090839,-0.00048067825380712826,-0.0002615040540694966,-9.839600344,1.3921623992089977e-16,1.1367868680000432
288,140.895,1.0,0.5136450410702337,-0.48865166669991617,-0.5066241500612131,-0.4906289614360331,0.0006487440196797245,-0.0004712266465649004,-0.0005370289650745836,-9.824223516799998,7.424866129114026e-17,0.6062863295999718
289,141.004,1.0,0.5136602890257664,-0.4883714098690833,-0.5056368141142425,-0.49191230649533335,0.0006340700462460537,-0.00046071414463222176,-0.0008434801416005535,-9.807120719200002,1.988803427450851e-18,0.016239812400077547
290,141.095,1.0,0.5137485031354099,-0.4880613202075984,-0.5045531401149635,-0.49323371986632125,0.0006390669655211896,-0.0004493962860213652,-0.0009308588407264167,-9.80665,0.0,0.0
291,141.204,1.0,0.5138572485227342,-0.4876867860870375,-0.5032445212731398,-0.4948267201192733,0.0006457565805358614,-0.00043573595553516795,-0.0010286420756711657,-9.80665,0.0,0.0
292,141.298,1.0,0.513960231984814,-0.48738782996060664,-0.5022148102183274,-0.496060757660623,0.0006536312350597717,-0.00043459870099585795,-0.00110774905601096,-9.80665,0.0,0.0
293,141.413,1.0,0.5141001621466691,-0.4870584937867626,-0.5011047430715452,-0.49735881774541285,0.0006664544977660821,-0.00044932855915601384,-0.001196622418525131,-9.80665,0.0,0.0
294,141.496,1.0,0.5142011552200079,-0.48682079898303166,-0.5003035641743026,-0.49829567850226103,0.0006757095482410703,-0.00045995967417595136,-0.0012607658019049175,-9.80665,0.0,0.0
295,141.609,1.0,0.5143125353549766,-0.4865964815880305,-0.49960781829738576,-0.499096369122891,0.0006944824460150304,-0.0004747242518616011,-0.0012618794125272875,-9.80665,0.0,0.0
296,141.695,1.0,0.5143957881569214,-0.4864315196212431,-0.49910121783976924,-0.4996782130069237,0.0007091277093063333,-0.0004859778776087535,-0.0012577277550238223,-9.80665,0.0,0.0
297,141.805,1.0,0.5144844237370139,-0.4862554464496936,-0.49858720213150526,-0.5002719095410825,0.0007084105009527265,-0.0004946662895718074,-0.0012746873320114013,-9.80665,0.0,0.0
298,141.895,1.0,0.5145380789586863,-0.4861482956325619,-0.49830821690174226,-0.5005985864552018,0.000687269085782567,-0.0004957450388268716,-0.00131209851775588,-9.80665,0.0,0.0
299,142.008,1.0,0.5146045370353143,-0.4860150144092742,-0.49796178896250115,-0.5010046216319821,0.0006617423491552498,-0.0004972371621988724,-0.0013578047659248093,-9.80665,0.0,0.0
300,142.096,1.0,0.5146170023775255,-0.4859653582609595,-0.4978585581043638,-0.5011425022041048,0.0006858400674536833,-0.0005043504643253986,-0.0013386993389576667,-9.80665,0.0,0.0
301,142.203,1.0,0.5146321591004416,-0.4859049808988042,-0.49773303876549224,-0.5013101524452085,0.0007151407022029169,-0.0005129995930474255,-0.0013154688766226167,-9.80665,0.0,0.0
302,142.295,1.0,0.5146279908630647,-0.48587059714956327,-0.4976704629465274,-0.5014099139397261,0.0007204356291331381,-0.0005621081579010788,-0.0013048162283375857,-9.80665,1.8735104751252973e-19,0.0015298373999995006
303,142.414,1.0,0.514592364786393,-0.48585693593317925,-0.497669234230348,-0.5014609307235868,0.000692307472229007,-0.000698880096897468,-0.0013074221126735208,-9.80665,7.590119360765881e-19,0.006197802799999492
304,142.5,1.0,0.514566618209975,-0.4858470631213387,-0.49766834625058803,-0.5014977999959568,0.0006719795605167747,-0.0007977236830629407,-0.0013093053568154574,-9.80665,1.1721450152069779e-18,0.009571290399999991
305,142.607,1.0,0.5144952994611884,-0.4858666736380464,-0.4977393298013751,-0.5014815111589911,0.0006747245375786821,-0.0008133769353510313,-0.0012584197143857118,-9.80665,7.177101115254155e-19,0.005860547808765051
306,142.699,1.0,0.5144319720572953,-0.485885164105503,-0.4978040445168545,-0.501464330740338,0.0006785167625129405,-0.000821353779990687,-0.0012119487549486227,-9.80665,2.7751457645644854e-19,0.0022660784860554497
307,142.802,1.0,0.5143428922169292,-0.4859250064422266,-0.49790021385638894,-0.5014215998819864,0.0006865379816320314,-0.0007875155757314472,-0.0011611739256685376,-9.80665,0.0,0.0
308,142.895,1.0,0.514241303062926,-0.4859832560682041,-0.4980146471157515,-0.5013556737839571,0.0006981742834406259,-0.0007071902676086207,-0.0011167862241910254,-9.80665,0.0,0.0
309,142.998,1.0,0.5141287903439764,-0.4860477690948242,-0.49814138502665833,-0.5012826588581826,0.0007110618004974514,-0.000618227829580148,-0.0010676256515869174,-9.80665,0.0,0.0
310,143.095,1.0,0.5139940103598273,-0.4861423843907002,-0.49829350234938224,-0.501177840229664,0.0006790028199605835,-0.0006094201272503142,-0.001029905804197291,-9.80665,0.0,0.0
311,143.202,1.0,0.5138412690259929,-0.48625153130236387,-0.49846592439641346,-0.50105712815727,0.0006374030647028905,-0.0006102825230713112,-0.0009895074700218569,-9.80665,0.0,0.0
312,143.3,1.0,0.5136906196347097,-0.4863629745788653,-0.4986314613042927,-0.5009387063186416,0.0006198431532830001,-0.0006083967359736562,-0.000936800486873834,-9.80665,0.0,0.0
313,143.404,1.0,0.5135155282021447,-0.4864974804016019,-0.4988179118403339,-0.5008019081186786,0.0006302726771682487,-0.0006026095459237703,-0.0008586421846412222,-9.80665,0.0,0.0
314,143.497,1.0,0.5133589560557164,-0.4866177596469337,-0.49898464164660167,-0.5006795789590964,0.0006395990783348683,-0.0005974344625137746,-0.0007887506259139594,-9.80665,0.0,0.0
315,143.603,1.0,0.5131597272094935,-0.4867758049175578,-0.49918650278452,-0.5005287955632075,0.0006684048048007383,-0.000635108903020501,-0.0007501007819802583,-9.80665,0.0,0.0
316,143.695,1.0,0.5129847242670944,-0.48691508196783323,-0.49936289139030227,-0.5003967858715574,0.0006952325894822699,-0.0006721864013098519,-0.0007206771478812479,-9.80665,0.0,0.0
317,143.804,1.0,0.5127650967304587,-0.4870928362518451,-0.4995783491244682,-0.5002338038483247,0.0007068454595282678,-0.0006961240828968587,-0.0006447794968262349,-9.80665,0.0,0.0
318,143.9,1.0,0.5125573879213915,-0.4872641935213069,-0.49977563352005955,-0.500082616164585,0.0006936368318274616,-0.0006939807743765414,-0.0005302562350407233,-9.80665,0.0,0.0
319,144.007,1.0,0.5123258791446187,-0.48745518547789457,-0.4999955234193124,-0.49991410489208354,0.0006789147155359387,-0.0006915918784216046,-0.0004026105161756276,-9.80665,0.0,0.0
320,144.095,1.0,0.5121224443808793,-0.4876283198270753,-0.5001786349726861,-0.49977027139882685,0.0006696595212043943,-0.0006452512150942073,-0.00034676378952762767,-9.80665,0.0,0.0
321,144.209,1.0,0.5118589038914896,-0.4878526075066957,-0.5004158476668292,-0.4995839416461989,0.0006576698376385286,-0.0005852189921473454,-0.0002744168936427109,-9.80665,0.0,0.0
322,144.296,1.0,0.5116543931093351,-0.488027684540457,-0.5005944107860136,-0.4994435534003301,0.0006698280437849383,-0.0005567900915630174,-0.00022509388951585528,-9.80665,0.0,0.0
323,144.412,1.0,0.5113758874672485,-0.4882678432485589,-0.5008282523683275,-0.49925948233628764,0.0007226741840131565,-0.0005487751732580367,-0.00016945500439033081,-9.80665,0.0,0.0
324,144.5,1.0,0.5111646073249758,-0.4884500326133258,-0.5010056494307725,-0.49911984221873823,0.0007627643593586937,-0.0005426948904059835,-0.00012724619498476848,-9.80665,0.0,0.0
325,144.602,1.0,0.5109181530447598,-0.48866391040492935,-0.5012033787350976,-0.49896408456742825,0.0007440321543253972,-0.0005696070892736298,-6.124610546976712e-05,-9.80665,0.0,0.0
326,144.695,1.0,0.5106933235714236,-0.4888591264299652,-0.5013830490943986,-0.4988225434200801,0.0007218934386037329,-0.0005967798607889515,2.555118407944967e-07,-9.80665,0.0,0.0
327,144.794,1.0,0.5104507787718049,-0.48907146233320076,-0.5015739405620631,-0.49867079023572425,0.0007098664035795319,-0.0006097008778353127,6.545240607773773e-05,-9.80665,0.0,0.0
328,144.895,1.0,0.510197602737163,-0.4892961671037468,-0.5017680269000383,-0.49851404252363424,0.0007181993510570352,-0.0005943086340970861,0.00013147977663339647,-9.80665,0.0,0.0
329,145.005,1.0,0.5099218664618105,-0.48954089507166815,-0.5019794080602092,-0.4983433271936352,0.0007272748384087703,-0.0005775448042831782,0.00020339077426826337,-9.80665,0.0,0.0
330,145.095,1.0,0.5096976631517341,-0.48974133081747545,-0.5021436511065941,-0.49821003020018156,0.0007026446076477349,-0.0005634575908302345,0.00028284574836581327,-9.80665,0.0,0.0
331,145.2,1.0,0.5094361109635349,-0.4899751751920865,-0.5023351538812546,-0.498054600663436,0.0006734891335453985,-0.0005470176405492318,0.0003758135007738754,-9.80665,0.0,0.0
332,145.303,1.0,0.5091836149139151,-0.49020135925014746,-0.502516226497293,-0.49790759534477774,0.0006653714669493581,-0.0005502236779293104,0.00043182746429307905,-9.80665,0.0,0.0
333,145.41,1.0,0.5089265577044635,-0.4904322000475724,-0.5026956002899506,-0.49776191418318066,0.0006833046454884301,-0.0005784404660719769,0.0004447273728233634,-9.80665,0.0,0.0
334,145.495,1.0,0.5087223533791981,-0.49061557825113417,-0.5028380934897255,-0.49764618615761286,0.0006975506284400308,-0.0006008556716058731,0.00045497496371190804,-9.80665,0.0,0.0
335,145.606,1.0,0.5084672171294902,-0.49084470813425407,-0.5030104786007954,-0.49750660562324667,0.000691479697531786,-0.0006124639414235878,0.0004936725716574075,-9.80665,0.0,0.0
336,145.695,1.0,0.5082638748336067,-0.49102732505913776,-0.5031472407536289,-0.4973959178180968,0.0006839875973402029,-0.0006198927731604778,0.0005273929727918244,-9.80665,0.0,0.0
337,145.797,1.0,0.5080319320161238,-0.4912363620637747,-0.5033012759601442,-0.4972706601991181,0.0006901686788495768,-0.0006350502174670425,0.0005750142870864138,-9.80665,0.0,0.0
338,145.895,1.0,0.5078107248632314,-0.49143682282749646,-0.5034452445642478,-0.49715269451129745,0.0007180994074138639,-0.000659506860053709,0.0006341344966326831,-9.80665,0.0,0.0
339,146.008,1.0,0.5075556594726515,-0.4916679663611756,-0.5036112491791835,-0.4970166728508512,0.0007503052474930882,-0.0006877068663015961,0.0007023037178441883,-9.80665,0.0,0.0
340,146.099,1.0,0.5073583416452843,-0.4918458672610334,-0.5037361970599707,-0.4969153170297773,0.0007410433356571648,-0.0006588139942001953,0.0007316295102418129,-9.80665,0.0,0.0
341,146.204,1.0,0.5071306672290913,-0.49205113753010016,-0.5038803676916482,-0.49679836800546123,0.000730356514308018,-0.000625476064852412,0.0007654669630083161,-9.80665,0.0,0.0
342,146.299,1.0,0.5069330432269835,-0.4922297002812172,-0.5040032674396183,-0.4966985354135073,0.0007217106370565788,-0.0006152800342533744,0.0007981415061901032,-9.80665,0.0,0.0
343,146.404,1.0,0.5067262866516719,-0.49241707562899706,-0.5041285872029028,-0.49659653246430685,0.0007135816946780929,-0.0006318592495517807,0.0008371282213677973,-9.80665,0.0,0.0
344,146.495,1.0,0.506547097619735,-0.492579467597073,-0.504237197664416,-0.49650812990833315,0.0007065366112834036,-0.0006462279028104024,0.0008709167078551384,-9.80665,0.0,0.0
345,146.605,1.0,0.506341510024433,-0.4927665306308614,-0.5043579882780848,-0.49640942858278364,0.0007354554141901662,-0.0006390289899202127,0.0009021709387701356,-9.80665,0.0,0.0
346,146.696,1.0,0.5061727618502102,-0.4929201686362956,-0.5044566486883211,-0.49632875999068593,0.0007638954374405938,-0.0006301095918095071,0.000926869857545581,-9.80665,0.0,0.0
347,146.805,1.0,0.5059765068282034,-0.4930986413358212,-0.5045699377233145,-0.49623644950798157,0.0007680504694581026,-0.0006333646285347643,0.0009589002076536424,-9.80665,0.0,0.0
348,146.903,1.0,0.5058067665120968,-0.4932527556988898,-0.5046662105442118,-0.49615838448023497,0.0007376109356991989,-0.0006522173252887997,0.0009904928188770967,-9.80665,0.0,0.0
349,147.009,1.0,0.5056234250850917,-0.49341916671621844,-0.5047701303307709,-0.4960741784590619,0.0007058366652173627,-0.0006719296800429066,0.0010240984620504164,-9.80665,0.0,0.0
350,147.095,1.0,0.5054854446792693,-0.49354219319968806,-0.5048454969175759,-0.4960156338759962,0.0007285797178645067,-0.0006592623642237638,0.0010274864512447458,-9.80665,0.0,0.0
351,147.212,1.0,0.505297727150418,-0.4937095664388269,-0.504948030529857,-0.4959359860129882,0.0007595208476286374,-0.0006420289229349339,0.0010320956923579605,-9.80665,0.0,0.0
352,147.295,1.0,0.5051707000767309,-0.49382536426425466,-0.5050171034438702,-0.4958797835995584,0.000774776868813905,-0.0006336245052778286,0.0010342188160791692,-9.80665,0.0,0.0
353,147.409,1.0,0.5050067138472225,-0.49397939663420415,-0.5051057170415382,-0.4958031020572363,0.0007843008988637868,-0.000628605804286419,0.0010351768580740353,-9.80665,0.0,0.0
354,147.495,1.0,0.5048830049372425,-0.4940955964922362,-0.5051725658959193,-0.49574525457794066,0.0007914856934628213,-0.0006248197666964077,0.0010358995915087591,-9.80665,0.0,0.0
355,147.606,1.0,0.5047380920255314,-0.49422782322975206,-0.5052469077625148,-0.495685205629719,0.0007651808590023437,-0.0006544826968769648,0.0010998612023941886,-9.80665,0.0,0.0
356,147.698,1.0,0.5046194666648504,-0.4943356331080652,-0.5053073249240448,-0.49563690357883955,0.0007398043187758128,-0.0006825391790343526,0.0011592065591728715,-9.80665,0.0,0.0
357,147.805,1.0,0.5044861449759189,-0.4944572789181979,-0.5053737667723331,-0.4955835498486122,0.0007372595953770098,-0.0006795788487520884,0.0012033844851107606,-9.80665,0.0,0.0
358,147.9,1.0,0.504373039748033,-0.49456104119252126,-0.5054284207809637,-0.4955393801186921,0.0007655679665115336,-0.0006366104780388388,0.0012144498271687378,-9.80665,0.0,0.0
359,148.01,1.0,0.5042425336541123,-0.4946806326629273,-0.505491412110802,-0.49548861618363144,0.0007966862315134644,-0.0005901653101549462,0.0012256490502743048,-9.80665,0.0,0.0
360,148.097,1.0,0.5041489114049237,-0.4947636005815991,-0.5055351070411206,-0.49545643019954516,0.0007865090252986793,-0.0006227574210950293,0.001200693772665948,-9.80665,0.0,0.0
361,148.204,1.0,0.5040337667995998,-0.49486564158502305,-0.5055888467830069,-0.4954168451386574,0.000773992231448314,-0.000662841971331675,0.0011700016496303891,-9.80665,0.0,0.0
362,148.296,1.0,0.5039396486915796,-0.4949505034350226,-0.5056310450505856,-0.49538476001023285,0.0007745793854151953,-0.0006707048386776776,0.0011550828881831052,-9.80665,0.0,0.0
363,148.403,1.0,0.503838258458141,-0.49504445090252425,-0.505673499486614,-0.49535066749829904,0.0007940197102145739,-0.0006358827621840648,0.001156689918947866,-9.80665,0.0,0.0
364,148.497,1.0,0.503749186664279,-0.4951269841917313,-0.5057107959070501,-0.49532071706725433,0.0008110981263934714,-0.0006052914052644348,0.0011581017029841981,-9.80665,0.0,0.0
365,148.604,1.0,0.503658464309304,-0.4952113683564258,-0.5057447402517772,-0.4952939408299608,0.0008228622686277443,-0.0005924991177547107,0.0012086380738765036,-9.80665,0.0,0.0
366,148.695,1.0,0.5035822432419601,-0.4952822958461844,-0.5057728626670217,-0.49527180998530645,0.0008321942618224324,-0.0005835512023608389,0.0012559075839817444,-9.80665,0.0,0.0
367,148.807,1.0,0.5034890523113522,-0.49536550669198953,-0.505809082950419,-0.4952463503551284,0.000836595955537633,-0.0005968396789394231,0.0012927811527624709,-9.80665,0.0,0.0
368,148.897,1.0,0.5034148069043466,-0.4954281525677942,-0.5058398499444957,-0.49522772903152035,0.0008328142713289715,-0.0006326251248828992,0.0013004008894786222,-9.80665,0.0,0.0
369,149.009,1.0,0.5033225967724108,-0.49550601950581136,-0.5058779853254569,-0.4952046162623826,0.0008277644999325367,-0.0006764920428395334,0.0013096066811122047,-9.80665,0.0,0.0
370,149.095,1.0,0.5032674882623233,-0.4955579369482668,-0.5058942755830572,-0.495192019840563,0.0007945947982370895,-0.0006534040207043318,0.0012931046872399767,-9.80665,0.0,0.0
371,149.206,1.0,0.5031963598365128,-0.4956249466705057,-0.5059153013806574,-0.49517576166821436,0.0007517827413976273,-0.0006236043642275091,0.0012718056021258275,-9.80665,0.0,0.0
372,149.297,1.0,0.503138618298847,-0.4956774844821415,-0.5059329792160705,-0.4951637876657945,0.0007435097356792501,-0.0006224544774740892,0.001264129023998975,-9.80665,0.0,0.0
373,149.403,1.0,0.5030722456841304,-0.49573495787154437,-0.5059542550800339,-0.49515194403759244,0.0007755355781409835,-0.0006572722503915368,0.001270384034141897,-9.80665,0.0,0.0
374,149.495,1.0,0.5030146392638104,-0.4957848404359318,-0.5059727209242285,-0.49514166466217174,0.0008033315923530593,-0.0006874914495274406,0.0012758129108697172,-9.80665,0.0,0.0
375,149.603,1.0,0.5029572244076261,-0.4958363540247373,-0.5059851606487196,-0.4951356887445415,0.00081044677994214,-0.0006708172452636065,0.0012894153292290864,-9.80665,0.0,0.0
376,149.695,1.0,0.5029095056359967,-0.49587941483350645,-0.5059946806348107,-0.49513130819147294,0.000813533612294122,-0.0006505343359895086,0.0013018452986143507,-9.80665,0.0,0.0
377,149.805,1.0,0.5028544504563068,-0.49592810974029355,-0.5060052247197667,-0.49512768086009623,0.0008129124930128457,-0.0006606138327624633,0.0012945970026776205,-9.80665,0.0,0.0
378,149.901,1.0,0.5028087418031604,-0.49596734231321393,-0.5060134459229243,-0.49512639894387045,0.0008073262562975287,-0.0007095715457107874,0.0012624061135575173,-9.80665,0.0,0.0
379,150.01,1.0,0.5027569737779851,-0.4960117820644498,-0.5060226791887258,-0.49512501993941704,0.000801389703061429,-0.0007634252193383939,0.0012255491595715377,-9.80665,0.0,0.0
380,150.095,1.0,0.502722042084947,-0.496042032686186,-0.5060256563044635,-0.4951271363546961,0.0008137050599325433,-0.0007330896856728979,0.0011840043263509922,-9.80665,0.0,0.0
381,150.209,1.0,0.5026751925201665,-0.4960826041082793,-0.5060296491420413,-0.49512997484107024,0.000830222126794978,-0.0006924043816979997,0.0011282853735610876,-9.80665,0.0,0.0
382,150.295,1.0,0.5026421837474568,-0.49611154448060935,-0.5060301513170783,-0.4951339765561351,0.0008344278356526065,-0.0006829230880830388,0.001135465770494174,-9.80665,0.0,0.0
383,150.404,1.0,0.5026042644766656,-0.49614542809871565,-0.5060265748072413,-0.49514217118763626,0.0008259030571207414,-0.0007065090658143132,0.0012271723942831045,-9.80665,0.0,0.0
384,150.495,1.0,0.5025726071038032,-0.49617371625695117,-0.5060235889137078,-0.4951490125772381,0.0008187860401812944,-0.0007262001114431756,0.0013037348049692765,-9.80665,0.0,0.0
385,150.61,1.0,0.5025356760730648,-0.49620705816045807,-0.5060165441565219,-0.49516028089769576,0.0008014615075326101,-0.0006819605499124463,0.0012597766836701177,-9.80665,0.0,0.0
386,150.699,1.0,0.5025073980254945,-0.49623262449071276,-0.5060107694517566,-0.495169260281408,0.0007872321387195583,-0.0006409048777911409,0.001211877574257729,-9.80665,0.0,0.0
387,150.799,1.0,0.5024780120024985,-0.49625887693747434,-0.5060042360108956,-0.4951794487467048,0.000793834323606766,-0.0006267061204804741,0.0011834692947256071,-9.80665,0.0,0.0
388,150.899,1.0,0.5024519224014404,-0.4962817132297966,-0.5059976404153832,-0.49518977429930244,0.0008316325538399994,-0.0006566028455309293,0.0011901523195399302,-9.80665,0.0,0.0
389,151.01,1.0,0.502422946620238,-0.49630705219780785,-0.5059903140721487,-0.4952012668365088,0.000872885455610229,-0.0006893622828647487,0.0011974581647664307,-9.80665,0.0,0.0
390,151.101,1.0,0.5023977195967312,-0.4963269854253737,-0.5059838359485933,-0.4952134999072634,0.0008432966703548985,-0.000677808902692048,0.0011933192964643233,-9.80665,0.0,0.0
391,151.2,1.0,0.502370274812916,-0.4963486710245937,-0.5059767883196706,-0.4952268084128096,0.0008111066732089958,-0.0006652398407459254,0.0011888165716081856,-9.80665,0.0,0.0
392,151.299,1.0,0.502345638698157,-0.49636933482552154,-0.505966630509094,-0.4952414668057657,0.0007897743258165209,-0.0006715430100598096,0.0011762753044849738,-9.80665,0.0,0.0
393,151.404,1.0,0.5023239033503831,-0.4963896524829654,-0.5059509915243043,-0.4952591253418567,0.0007841347503554392,-0.0007077517938411156,0.0011503985137622588,-9.80665,0.0,0.0
394,151.495,1.0,0.5023050660489792,-0.4964072611194168,-0.5059374377374866,-0.4952744294064689,0.0007792471182891675,-0.0007391327397849202,0.0011279719618025683,-9.80665,0.0,0.0
395,151.605,1.0,0.5022854830493613,-0.4964244720553007,-0.5059221880118369,-0.49529261578999023,0.0007697666132084264,-0.0007381295480123499,0.0011594763375351175,-9.80665,0.0,0.0
396,151.698,1.0,0.5022692876683293,-0.49643856147513943,-0.505909423550535,-0.49530795608109995,0.0007613464968234464,-0.0007328695983559151,0.0011927532417091236,-9.80665,0.0,0.0
397,151.802,1.0,0.5022520945559089,-0.49645372450938563,-0.5058926719158998,-0.49532730221350224,0.0007796525321957192,-0.0007344402993405842,0.0011863476303856679,-9.80665,0.0,0.0
398,151.895,1.0,0.5022378842951611,-0.4964665316622864,-0.5058745493605122,-0.49534738204037954,0.0008311894714772296,-0.0007452991858665516,0.001125286862764859,-9.80665,0.0,0.0
399,152.005,1.0,0.502221076459868,-0.4964816799076529,-0.5058531140799463,-0.4953711323732451,0.0008921471415951255,-0.0007581430301445734,0.0010530644494499471,-9.80665,0.0,0.0
400,152.097,1.0,0.5022055273228346,-0.49649412279470606,-0.505836786533061,-0.4953910959211608,0.0008703074667469706,-0.000730092038533514,0.0010778108428764585,-9.80665,0.0,0.0
401,152.201,1.0,0.5021879125654689,-0.4965081829758022,-0.505818369502959,-0.4954136659129709,0.0008437897823381393,-0.0006974077088728773,0.0011079240754793688,-9.80665,0.0,0.0
402,152.295,1.0,0.5021732930362153,-0.49652004150762125,-0.505800972360524,-0.4954343625306204,0.0008298260206356645,-0.0006829676330089569,0.0011187005583196876,-9.80665,0.0,0.0
403,152.41,1.0,0.5021579727535648,-0.4965328744757423,-0.5057782084094715,-0.495460267899668,0.0008324612677097323,-0.0006950673048850158,0.001099478195421396,-9.80665,0.0,0.0
404,152.495,1.0,0.5021466490663883,-0.4965423597130491,-0.5057613828804326,-0.4954794153463554,0.0008344090590253477,-0.0007040105406194944,0.0010852703619748322,-9.80665,0.0,0.0
405,152.601,1.0,0.5021311160604105,-0.4965550250022218,-0.5057391090976039,-0.49550519765795886,0.0008299517203084973,-0.0006821416316078927,0.0010471916551810176,-9.80665,0.0,0.0
406,152.695,1.0,0.5021171510034491,-0.49656636938690135,-0.5057191826105724,-0.49552831819886306,0.000825069696047759,-0.0006582922861821616,0.0010106761361954842,-9.80665,0.0,0.0
407,152.798,1.0,0.5021035062071798,-0.4965777470522829,-0.505696648102257,-0.4955537399201443,0.0008180366420424529,-0.0006608177784392478,0.0009825265640763948,-9.80665,0.0,0.0
408,152.895,1.0,0.5020931145079,-0.49658690024860536,-0.5056743877606161,-0.49557781056620204,0.0008089160739139927,-0.0007057036263905378,0.0009736112816133098,-9.80665,0.0,0.0
409,153.0,1.0,0.5020818657612568,-0.4965968083477173,-0.5056502915145099,-0.49560386642018206,0.0007990432939811252,-0.0007542913999460489,0.0009639607181223432,-9.80665,0.0,0.0
410,153.095,1.0,0.5020702870464677,-0.4966059616422158,-0.5056296458790395,-0.4956274861807233,0.0007893423521891223,-0.0007396455104462773,0.0009572462365031234,-9.80665,0.0,0.0
411,153.21,1.0,0.5020560931895128,-0.4966170658668547,-0.5056048002053312,-0.4956560842759244,0.0007775017602834828,-0.0007144918602425556,0.0009493736969307051,-9.80665,0.0,0.0
412,153.295,1.0,0.5020473798620341,-0.4966243754593772,-0.5055848850853838,-0.4956779003506467,0.0007792717125266793,-0.0007097298870794476,0.0009542190749198202,-9.80665,0.0,0.0
413,153.412,1.0,0.5020387169539893,-0.49663275469791235,-0.5055545668024072,-0.49570920044861766,0.0008014207030646541,-0.0007290858116466584,0.0009808683092705952,-9.80665,0.0,0.0
414,153.502,1.0,0.5020320531785701,-0.4966392002660163,-0.5055312450462713,-0.49573327744705686,0.0008184583880938634,-0.0007439749843906649,0.0010013677203096502,-9.80665,0.0,0.0
415,153.605,1.0,0.5020202703361497,-0.49664837658701866,-0.5055062208664137,-0.49576153195410894,0.0008369594914838678,-0.0007253732196986667,0.0009547184323891979,-9.80665,-4.611718092617797e-19,-0.0037657536000001426
416,153.705,1.0,0.5020085364311739,-0.4966574130443506,-0.5054820435065267,-0.49578901304954426,0.0008548511061817455,-0.0007047900827601497,0.0009044645922258365,-9.80665,-9.415591105762247e-19,-0.007688413600001035
417,153.811,1.0,0.5019989082675202,-0.4966660225427234,-0.5054539214324889,-0.49581880728486105,0.0008694314536728339,-0.0006751203070297391,0.0009022029387918061,-9.80665,-9.501636381417315e-19,-0.0077586748995977645
418,153.896,1.0,0.5019935273507476,-0.49667211934984157,-0.5054292938272121,-0.49584325204873503,0.0008774719233288002,-0.0006447902118065345,0.0009428646834380118,-9.80665,-5.401945556948959e-19,-0.004411023293173185
419,154.005,1.0,0.5019866271162982,-0.4966799376083814,-0.5053977125451512,-0.49587459886358526,0.0008877826432405722,-0.0006058963249908831,0.000995007391278457,-9.80665,-1.446949702760799e-20,-0.0001181524096391072
420,154.103,1.0,0.5019770463502528,-0.4966877790628485,-0.5053747226681579,-0.4958998716806479,0.00090376946349736,-0.000641437958410213,0.0009533194472560572,-9.80665,0.0,0.0
421,154.206,1.0,0.5019668646903835,-0.49669604754835434,-0.5053507392077188,-0.49592633732539676,0.0009207948636489943,-0.0006811331906096176,0.0009065649668830811,-9.80665,0.0,0.0
422,154.298,1.0,0.5019565533381293,-0.4967044889753588,-0.5053279916994059,-0.4959514980965753,0.0009271621568049914,-0.0007099617589601756,0.0008955106731077854,-9.80665,0.0,0.0
423,154.401,1.0,0.5019431574071265,-0.49671554634073445,-0.5053005078544583,-0.4959819822057983,0.0009208412590365566,-0.0007321539444355204,0.0009298541397978421,-9.80665,0.0,0.0
424,154.495,1.0,0.5019309319943666,-0.496725637528553,-0.5052754255105257,-0.49600980265499217,0.0009150726727236169,-0.0007524070069081623,0.0009611967210489571,-9.80665,0.0,0.0
425,154.604,1.0,0.5019174412844142,-0.4967370440615607,-0.5052466678526749,-0.496041322028447,0.0008996683824529102,-0.0007240602313410968,0.0009239824730865752,-9.80665,0.0,0.0
426,154.699,1.0,0.5019057642392993,-0.49674695072410546,-0.5052216424548635,-0.49606870564438194,0.0008852140265108756,-0.000693236955857098,0.0008828664134512475,-9.80665,0.0,0.0
427,154.815,1.0,0.5018950549933469,-0.4967573520060303,-0.5051903838941668,-0.49610095879935445,0.0008712588963098814,-0.0006726480117067691,0.0008605242045596251,-9.80665,0.0,0.0
428,154.902,1.0,0.5018898749665992,-0.49676379069336585,-0.5051663764829672,-0.496124197493089,0.0008637612622696906,-0.0006709055069368332,0.0008661571885459127,-9.80665,0.0,0.0
429,155.011,1.0,0.5018833152857115,-0.49677188119575616,-0.5051362957393919,-0.496153361904339,0.0008552000919112084,-0.0006687489713438269,0.000873056370245508,-9.80665,0.0,0.0
430,155.109,1.0,0.5018740619594318,-0.4967802923910385,-0.5051091307630404,-0.49618195286880323,0.0008875429198939971,-0.000668089675663254,0.000871648054673852,-9.80665,0.0,0.0
431,155.209,1.0,0.5018646197897588,-0.4967888752433674,-0.5050814113994165,-0.49621112732233813,0.000920545805590714,-0.0006674169249687921,0.000870210997968081,-9.80665,0.0,0.0
432,155.297,1.0,0.5018543307940657,-0.49679735142660214,-0.505058698722045,-0.49623616538624515,0.0009349245678167786,-0.0006716476513538516,0.0008646446475759141,-9.80665,-1.7774330148633368e-19,-0.0014513842000002408
433,155.401,1.0,0.5018389458515625,-0.49680887273927465,-0.5050345937652877,-0.49626472067356514,0.0009280304654967026,-0.0006845038200262957,0.0008510587299242591,-9.80665,-6.773460948533072e-19,-0.005530950600000767
434,155.498,1.0,0.5018245964340354,-0.49681961857897877,-0.505012111257543,-0.4962913539703924,0.0009216003892943263,-0.0006964946696534751,0.0008383872490376235,-9.80665,-1.1433217771281168e-18,-0.009335930799999982
435,155.608,1.0,0.5018114009621143,-0.49683081390355455,-0.5049825024086938,-0.49632361389581603,0.0009074880862608534,-0.0007120438390411455,0.0007934091687202396,-9.80665,-2.5940914270961447e-19,-0.0021182363999989653
436,155.699,1.0,0.5018007964105986,-0.49683997513573147,-0.5049575911515578,-0.49635051004578223,0.0008951224586926372,-0.000725104906829077,0.0007530994424596335,-9.80665,6.148957456825549e-19,0.005021004800001677
437,155.803,1.0,0.5017895364452537,-0.49685097859596156,-0.5049278835037632,-0.4963811004635056,0.0008809411307223709,-0.0007265100174542012,0.0007457586339022607,-9.80665,1.4100436981898707e-18,0.011513880566801775
438,155.895,1.0,0.5017806543377248,-0.49686138190137163,-0.5049000505233673,-0.49640797544013987,0.0008683343901513845,-0.0007107841993421899,0.0007878646739053515,-9.80665,1.8573679058915164e-18,0.0151665599190288
439,156.004,1.0,0.5017701309711958,-0.49687370755669447,-0.504867074492246,-0.4964398164450653,0.0008533981431705467,-0.0006921525235355737,0.000837751177822041,-9.80665,2.387349847624818e-18,0.0194941908906877
440,156.099,1.0,0.5017625777609169,-0.4968826681936225,-0.5048398829313842,-0.49646613143436497,0.0008402935428810982,-0.0007095945627605968,0.0008086424768118897,-9.80665,1.5250390517916235e-18,0.012452888888889556
441,156.204,1.0,0.5017542878096619,-0.49689250783345235,-0.5048098849293637,-0.49649516465494564,0.000825806383675494,-0.000730086497025612,0.0007738535526201131,-9.80665,5.242321740531759e-19,0.004280680555554195
442,156.295,1.0,0.5017439165692046,-0.4969019882458595,-0.5047860216516795,-0.49652041980138556,0.0008391584538709955,-0.0007353409987028344,0.0007573464682206988,-9.80665,0.0,0.0
443,156.4,1.0,0.5017263323211772,-0.4969146066656402,-0.5047622507059651,-0.49654972433594813,0.0009002351518386546,-0.0007193595068009759,0.0007623505506820363,-9.80665,0.0,0.0
444,156.502,1.0,0.5017092504802363,-0.4969268645591414,-0.5047391589301282,-0.4965781915980947,0.000959566801292944,-0.0007038346289534582,0.0007672116593587634,-9.80665,0.0,0.0
445,156.605,1.0,0.5016920768208174,-0.4969409161598821,-0.5047119602559295,-0.49660912193805434,0.0009514323482289912,-0.0007113948813639579,0.0007520307204686109,-9.80665,0.0,0.0
446,156.695,1.0,0.5016770762771653,-0.4969533173994568,-0.5046879088884845,-0.4966363091508597,0.0009393174806609746,-0.0007197107770480217,0.0007372875814326105,-9.80665,0.0,0.0
447,156.807,1.0,0.5016600771146671,-0.49696761735370615,-0.5046575364116807,-0.49667003477658167,0.0009292205648344696,-0.0007310998958668533,0.0007102436229244497,-9.80665,-2.3038982818134633e-19,-0.0018812757142855612
448,156.895,1.0,0.5016485333186163,-0.49697762221122105,-0.5046331921576617,-0.49669641683295784,0.0009266979807075488,-0.0007411790679075906,0.0006795444749105588,-9.80665,-6.617580171167694e-19,-0.005403664285714959
449,157.005,1.0,0.5016341035735528,-0.4969901282831147,-0.504602761840138,-0.496729394403428,0.0009235447505488992,-0.0007537780329585074,0.00064117053989321,-9.80665,-1.2009682532858392e-18,-0.00980665
450,157.1,1.0,0.5016218847940287,-0.49700200254185795,-0.5045767381498008,-0.4967562849484633,0.0009301546401819032,-0.0007404668505449649,0.0006716932060525701,-9.80665,-7.535487079440533e-19,-0.006153192156862724
451,157.203,1.0,0.5016086370646501,-0.49701487673817957,-0.5045485229908035,-0.4967854399604489,0.0009373211520997925,-0.0007260347264544913,0.0007047862019937741,-9.80665,-2.684517272050181e-19,-0.002192074705881929
452,157.295,1.0,0.501595255653368,-0.49702644637168186,-0.5045243082090528,-0.4968119685852321,0.0009400801560437417,-0.0007163948328465163,0.0007133978257371392,-9.80665,0.0,0.0
453,157.409,1.0,0.5015755494714622,-0.4970409246265741,-0.5044962949318949,-0.49684582429794255,0.0009361490131498218,-0.0007110101758687153,0.0006817971040641011,-9.80665,0.0,0.0
454,157.501,1.0,0.5015596462369417,-0.4970526088322766,-0.5044736877257674,-0.4968731464520598,0.0009329765118670089,-0.0007066646632199631,0.0006562947672753309,-9.80665,0.0,0.0
455,157.603,1.0,0.5015468768558624,-0.4970666972319145,-0.5044453977249371,-0.4969006607241869,0.0008959493292713007,-0.0007117469140495166,0.0006854887032548012,-9.80665,0.0,0.0
456,157.697,1.0,0.501535153362155,-0.4970796910077144,-0.5044192971169084,-0.49692599166939444,0.0008615204808030397,-0.0007165208898742003,0.0007129172846160369,-9.80665,0.0,0.0
457,157.806,1.0,0.5015211461412366,-0.49709558566232664,-0.504388246943823,-0.4969557455748708,0.0008562174982825511,-0.0007230762377904515,0.0007199401363351908,-9.80665,0.0,0.0
458,157.895,1.0,0.5015092642553319,-0.49710945506604376,-0.5043620489825447,-0.4969804501963195,0.0008891766730406628,-0.0007295269489870885,0.0006989809388547077,-9.80665,0.0,0.0
459,158.013,1.0,0.5014936689127847,-0.49712791861921607,-0.5043271938273987,-0.49701309236453983,0.0009308334233811507,-0.0007367764455154036,0.0006727368026657677,-9.80665,-2.8938994055219197e-20,-0.00023630481927824128
460,158.102,1.0,0.5014864793768903,-0.49714401022083826,-0.5042974127404086,-0.4970344661995435,0.0009032153177550054,-0.0007045675799845248,0.0006975966658121593,-9.80665,-8.87462484355943e-19,-0.007246681124499152
461,158.21,1.0,0.5014777549962545,-0.49716353710819994,-0.5042612738932746,-0.49706040298808735,0.0008697012120513667,-0.0006654826645088496,0.0007277636907538496,-9.80665,-1.929266270338899e-18,-0.01575365461847554
462,158.295,1.0,0.5014673457540695,-0.49717906487330943,-0.5042354205394161,-0.4970816006333355,0.0008626206992732073,-0.0006512353297386065,0.0007229594020284265,-9.80665,-2.057435653039479e-18,-0.016800237051792774
463,158.409,1.0,0.5014469177192059,-0.4972001812959497,-0.504205473293373,-0.49711146238937726,0.0008883497427751973,-0.0006622731775153,0.0006644039997363457,-9.80665,-9.665162835208474e-19,-0.0078922043824699
464,158.507,1.0,0.5014293567769547,-0.4972183340101492,-0.5041797291695815,-0.497137133021764,0.0009104676924523488,-0.0006717618536742127,0.0006140668995203416,-9.80665,-2.870840446088068e-20,-0.0002344219123494931
465,158.604,1.0,0.5014138725361243,-0.4972351986194396,-0.5041559682086604,-0.49715997717665283,0.0008939504986628849,-0.0006556740938685794,0.0006375997997820438,-9.80665,0.0,0.0
466,158.7,1.0,0.5013986078610957,-0.4972518545315667,-0.5041325065485762,-0.4971825048217969,0.0008763903891667728,-0.0006389473914168778,0.0006632071174681182,-9.80665,0.0,0.0
467,158.809,1.0,0.5013842229314404,-0.49727095191088866,-0.5041022184252109,-0.4972086209713705,0.0008706980306340996,-0.0006440166766422423,0.0006758932479616086,-9.80665,0.0,0.0
468,158.896,1.0,0.5013756214584745,-0.4972863765390336,-0.5040744768136657,-0.4972299916715378,0.0008800775359710115,-0.0006715787635895466,0.0006700013184463645,-9.80665,0.0,0.0
469,159.014,1.0,0.5013639227808697,-0.4973073755980944,-0.5040368003807955,-0.497258981521917,0.0008945725190330897,-0.000708902064540182,0.0006612807849006477,-9.80665,0.0,0.0
470,159.1,1.0,0.5013548644094797,-0.4973239696752882,-0.5040085197147312,-0.49728018059389706,0.0009343459222658727,-0.0007351194823761878,0.0006429146677515349,-9.80665,0.0,0.0
471,159.211,1.0,0.5013431727905926,-0.49734538761213143,-0.5039720179248108,-0.4973075421868016,0.000985681361322157,-0.0007689582426063933,0.0006192095630590672,-9.80665,0.0,0.0
472,159.297,1.0,0.5013321602164063,-0.4973622356260336,-0.5039449658639303,-0.49732920823594734,0.0009990892483830345,-0.000754262669475736,0.0006142187901925921,-9.80665,0.0,0.0
473,159.406,1.0,0.5013149222815136,-0.4973840157379214,-0.5039127411683793,-0.4973574525166661,0.0009718283390940448,-0.0006669642624396493,0.0006303438457686587,-9.80665,0.0,0.0
474,159.498,1.0,0.5013003728318796,-0.4974023989516248,-0.5038855423427764,-0.49738129172608003,0.0009488191312538024,-0.000593281203289943,0.0006439539844200142,-9.80665,0.0,0.0
475,159.611,1.0,0.5012777792208617,-0.49742104913737967,-0.5038614688333459,-0.49740979637939386,0.0009779519481729142,-0.0006466826676313157,0.0006283647348302826,-9.80665,0.0,0.0
476,159.711,1.0,0.5012573341199701,-0.4974371787381758,-0.5038410556216455,-0.4974349476667055,0.00100921069116952,-0.0007076742316770738,0.0006114857654417438,-9.80665,0.0,0.0
477,159.81,1.0,0.5012382720005667,-0.49745459503848555,-0.5038173542876195,-0.497460744089229,0.000994986458681517,-0.0007332538021728386,0.0005931004649028161,-9.80665,-2.4019365065722246e-19,-0.001961330000000446
478,159.901,1.0,0.5012218118842275,-0.49747190832705934,-0.5037924223618868,-0.49748526366019735,0.0009412218085490052,-0.0007254163436591607,0.0005746918828226587,-9.80665,-6.773460948533072e-19,-0.005530950600000767
479,160.012,1.0,0.5012016910657706,-0.4974930048152147,-0.5037620582686894,-0.4975151892916992,0.0008781356671825114,-0.0007162269540131101,0.0005530587127432248,-9.80665,-1.1913605072595066e-18,-0.009728196799999625
480,160.105,1.0,0.5011828653115278,-0.49750967939206153,-0.5037387814028736,-0.4975410449427638,0.0009392029419541351,-0.0007254495494998989,0.0005724338674917815,-9.80665,-7.446003170372258e-19,-0.006080123000000045
481,160.215,1.0,0.5011605982903803,-0.49752940200983736,-0.5037112496261025,-0.49757162689563594,0.0010114330518990837,-0.0007363579957745981,0.0005953507171943811,-9.80665,-2.1617428559139097e-19,-0.0017651969999995087
482,160.301,1.0,0.5011434285557858,-0.49754446653258405,-0.5036899019573866,-0.4975954669718184,0.0010336551540531223,-0.0007366655159275981,0.000595199973322452,-9.80665,0.0,0.0
483,160.415,1.0,0.5011210164375308,-0.49756391932328337,-0.5036618616578609,-0.4976269678891342,0.001013283689972013,-0.000725112516665831,0.000568713550455868,-9.80665,0.0,0.0
484,160.504,1.0,0.5011035192574896,-0.49757910615111,-0.5036399705468276,-0.4976515607105474,0.000997379652224481,-0.0007160930698737501,0.0005480355536565186,-9.80665,0.0,0.0
485,160.602,1.0,0.5010807958676172,-0.4975975397332875,-0.5036166489161371,-0.4976796078455607,0.0009794213250279402,-0.0007314671990461669,0.0005429866509512063,-9.80665,0.0,0.0
486,160.706,1.0,0.5010564420014334,-0.497617220321474,-0.5035919536351909,-0.4977094391060787,0.0009603326395154003,-0.000749534013215452,0.000538855046965182,-9.80665,0.0,0.0
487,160.812,1.0,0.501034761128955,-0.49763677078065793,-0.5035649969226506,-0.4977389920577037,0.0009613966187128312,-0.0007677191401835549,0.0005369627397448064,-9.80665,0.0,0.0
488,160.906,1.0,0.5010184275519209,-0.49765363960893977,-0.5035394467052481,-0.4977644147974775,0.0009812367866669188,-0.0007836345714921396,0.0005374199931558031,-9.80665,0.0,0.0
489,161.015,1.0,0.5009992546536869,-0.49767326143312807,-0.5035099613358913,-0.4977939235319763,0.001003364215604961,-0.000799837335478518,0.000538312651216983,-9.80665,0.0,0.0
490,161.107,1.0,0.50097791191491,-0.4976911780671122,-0.5034882209792718,-0.49781947637700547,0.0010025716172531248,-0.0007636097730137392,0.0005470962654799227,-9.80665,0.0,0.0
491,161.208,1.0,0.5009544812995137,-0.4977108474152904,-0.5034643538486351,-0.4978475289568744,0.0010017014821060001,-0.0007238382098730641,0.0005567391463555399,-9.80665,0.0,0.0
492,161.306,1.0,0.5009344868282382,-0.4977291634577714,-0.50343957469172,-0.4978743942669805,0.0009926649299450189,-0.0007100837165489817,0.0005577235296368586,-9.80665,0.0,0.0
493,161.414,1.0,0.5009160087533985,-0.4977483502657826,-0.5034101631212324,-0.49790354142549925,0.0009720730581320838,-0.0007271614754572497,0.0005479417480528363,-9.80665,0.0,0.0
494,161.514,1.0,0.5008986009240441,-0.49776611973231194,-0.5033832028060423,-0.4979305499898847,0.0009536243041034745,-0.0007418509830821677,0.0005390071183869452,-9.80665,0.0,0.0
495,161.615,1.0,0.5008712709752998,-0.49778419437063265,-0.503364875762749,-0.49795849662046515,0.000955166153508766,-0.0007200063693423134,0.0005339860498164606,-9.80665,0.0,0.0
496,161.695,1.0,0.5008496234911459,-0.4977985109158372,-0.5033503592928138,-0.4979806325654794,0.0009563874203644424,-0.0007027037049939172,0.0005300089658002358,-9.80665,0.0,0.0
497,161.806,1.0,0.5008233550865344,-0.4978192447055343,-0.5033251548880292,-0.49801179984822735,0.0009634981853887466,-0.0006926715900190192,0.0005273806983605031,-9.80665,0.0,0.0
498,161.902,1.0,0.5008052406717801,-0.497838239342164,-0.5032971692748905,-0.4980393097489381,0.0009762671990320081,-0.0007010743026621636,0.0005286393696442246,-9.80665,0.0,0.0
499,162.009,1.0,0.5007850506470019,-0.49785941044757415,-0.503265976976913,-0.49806997182577195,0.000990499328821897,-0.0007104398261290038,0.0005300422636792064,-9.80665,0.0,0.0
500,162.107,1.0,0.500763334452284,-0.49787708958907784,-0.5032433248606077,-0.4980970180217636,0.0009716217080502205,-0.0007310726569011909,0.0005337801197009439,-9.80665,0.0,0.0
501,162.208,1.0,0.5007409192173085,-0.49789529174733815,-0.5032200421745284,-0.49812488114637304,0.0009518271331597424,-0.0007524651883863869,0.0005376584622897656,-9.80665,0.0,0.0
502,162.305,1.0,0.5007201905208968,-0.49791297671575774,-0.5031962930189593,-0.49815203209561354,0.0009608147492871699,-0.0007708854942926669,0.0005392551942949135,-9.80665,0.0,0.0
503,162.407,1.0,0.5006994051315732,-0.49793183127856216,-0.503169560885807,-0.4981810782314003,0.0010057292167045045,-0.0007875637045171304,0.0005382388156004638,-9.80665,0.0,0.0
504,162.509,1.0,0.5006786197422495,-0.4979506858413666,-0.5031428287526547,-0.49821012436718703,0.0010506436841218267,-0.0008042419147415894,0.0005372224369060145,-9.80665,0.0,0.0
505,162.615,1.0,0.5006630158768716,-0.4979693269913534,-0.5031105636041562,-0.4982397528273031,0.0010313850897364285,-0.000807411089772359,0.0005220841919071947,-9.80665,0.0,0.0
506,162.712,1.0,0.5006487891297862,-0.497986377098298,-0.5030809988644429,-0.49826686081135696,0.0010131870284676556,-0.0008101877500303088,0.0005081085423007611,-9.80665,0.0,0.0
507,162.807,1.0,0.5006284114667308,-0.49800353800163216,-0.5030569546547117,-0.498294458912937,0.0010079699471051175,-0.0007910134191476419,0.0005040641278547949,-9.80665,0.0,0.0
508,162.906,1.0,0.5006003173241184,-0.4980219135327831,-0.5030371246694227,-0.49832433551509736,0.001015949230900859,-0.0007477307279846498,0.0005101123346995378,-9.80665,0.0,0.0
509,163.013,1.0,0.500570520506196,-0.4980414027324886,-0.5030160928668436,-0.4983560228204189,0.0010244121076539159,-0.000701824843417853,0.0005165270995348693,-9.80665,0.0,0.0
