,time,img_sim,orientation.x,orientation.y,orientation.z,orientation.w,angular_velocity.x,angular_velocity.y,angular_velocity.z,linear_acceleration.x,linear_acceleration.y,linear_acceleration.z,ground_truth
0,72.537,0.9801980198019802,-0.0007050095834193901,0.0003079527673001859,-0.7072000310134657,-0.7070131004794115,0.00045453310688026117,-0.00043893184443004216,-0.0003280999150592885,0.0,-0.0098066499999988,9.80665,1.0
1,72.602,1.0,-0.000704836599364446,0.00030888589544240486,-0.7071980906202037,-0.7070150411335913,0.0004462194981751953,-0.00042524397361557765,-0.0003602657769806723,0.0,-0.0098066499999988,9.80665,1.0
2,72.704,1.0,-0.0007045651474628415,0.0003103501888348099,-0.7071950456953925,-0.7070180864678428,0.00043317352759186204,-0.0004037645455682655,-0.00041074143722653276,0.0,-0.0098066499999988,9.80665,1.0
3,72.815,0.9797979797979798,-0.0007050239258449637,0.0003113365703035371,-0.7071916727279344,-0.7070214593725846,0.00042537364247255025,-0.00041330848680809224,-0.00043346677231602344,0.0,-0.0098066499999988,9.80665,1.0
4,72.903,1.0,-0.000706018769253892,0.00031161051082768205,-0.7071889489782882,-0.7070241826471593,0.00042454336280934506,-0.00044842236256227303,-0.0004245337105821807,0.0,-0.0098066499999988,9.80665,1.0
5,73.02,0.9896907216494846,-0.0007077161601171468,0.000311859390854105,-0.7071853503549661,-0.7070277802993724,0.00042278257644349387,-0.0004912305194736121,-0.0004151155329188814,0.0,-0.0098066499999988,9.80665,1.0
6,73.108,1.0,-0.0007123747498729452,0.00031100559815605767,-0.7071828488115703,-0.7070302780483381,0.00041552935460252094,-0.0004884326557788358,-0.00043022342546160375,0.0,-0.0098066499999988,9.80665,1.0
7,73.171,0.9587628865979382,-0.0007157098766299371,0.00031039436020177387,-0.7071810579339121,-0.7070320662095294,0.0004103367071481883,-0.00048642963972462107,-0.0004410393030774158,0.0,-0.0098066499999988,9.80665,1.0
8,73.277,1.0,-0.0007206351899109487,0.0003096941197244997,-0.7071779547120752,-0.7070351654158809,0.00040818703651893904,-0.00047951930086128405,-0.0004533941420959307,0.0,-0.0098066499999988,9.80665,1.0
9,73.388,1.0,-0.0007214337088545928,0.00031104579477068186,-0.7071741333627866,-0.7070389860865915,0.0004477831055410223,-0.0004497928093187499,-0.0004292102367617179,0.0,-0.0098066499999988,9.80665,1.0
10,73.503,1.0,-0.0007222610032556655,0.00031244617882753717,-0.7071701743072172,-0.7070429444391297,0.0004888060599332674,-0.00041899509285576656,-0.0004041548393433914,0.0,-0.0098066499999988,9.80665,1.0
11,73.594,0.9797979797979798,-0.0007226686281172577,0.0003137673728017574,-0.7071671092779738,-0.707046008984688,0.000490430388832465,-0.0004141125131864103,-0.00038178848475217973,0.0,-0.0098066499999988,9.80665,1.0
12,73.697,1.0,-0.0007230993189524398,0.000315289258973967,-0.7071636484903943,-0.7070494692338221,0.0004884380131261423,-0.0004110070335445925,-0.0003561571892350906,0.0,-0.0098066499999988,9.80665,1.0
13,73.808,0.9896907216494846,-0.000724087404228441,0.0003169398767813311,-0.7071598236117509,-0.707053292961489,0.00048751449910923846,-0.0004163368798326712,-0.0003693499551154714,0.0,-0.0098066499999988,9.80665,1.0
14,73.906,1.0,-0.0007256134135479523,0.0003184103118236609,-0.7071563278101163,-0.7070567870349558,0.00048822566051967445,-0.00043186692916788254,-0.0004319162555038963,0.0,-0.0098066499999988,9.80665,1.0
15,73.99,1.0,-0.0007269214215361048,0.00031967068471708634,-0.7071533314087153,-0.7070597819550702,0.0004888352274429053,-0.0004451784000266335,-0.0004855445129796826,0.0,-0.0098066499999988,9.80665,1.0
16,74.093,1.0,-0.0007291704282217453,0.0003199600966941726,-0.7071501371656962,-0.7070629741478227,0.0004965029258746657,-0.00043203049246221724,-0.0004572263469453884,0.0,-0.0098066499999988,9.80665,1.0
17,74.188,0.9896907216494846,-0.0007314063683534576,0.0003199123789149088,-0.7071473112426562,-0.7070657981212393,0.0005053086634725334,-0.00041252119257114794,-0.0004075405704788853,0.0,-0.0098066499999988,9.80665,1.0
18,74.291,1.0,-0.0007344756211576536,0.0003192557132667123,-0.7071442479376226,-0.7070688588832184,0.0005044119276572029,-0.0004015374404843892,-0.00037201168027240736,0.0,-0.008669078599998943,9.80665,1.0
19,74.356,1.0,-0.000737451216087735,0.00031786718772792673,-0.7071423157348062,-0.7070707887899649,0.0004870279198512451,-0.00041098029469139794,-0.00037912517855875124,0.0,-0.006119349599999031,9.80665,1.0
20,74.478,0.96875,-0.0007430361788795803,0.0003152610321012829,-0.7071386891387507,-0.7070744110764738,0.0004543994744308309,-0.0004287038056645534,-0.00039247666765004327,0.0,-0.0013337043999990354,9.80665,1.0
21,74.603,0.9896907216494846,-0.0007455875088730777,0.00031649447808509794,-0.7071339265276834,-0.7070791708339083,0.00044459685863506416,-0.0004370625802332668,-0.0004119758029241146,0.0,-0.003598407862901719,9.80665,1.0
22,74.708,1.0,-0.0007467354299728627,0.0003187557299892407,-0.7071295973888028,-0.7070834980659294,0.00044377827115597265,-0.000441008082669859,-0.0004301814511681205,0.0,-0.007750416935482443,9.80665,1.0
23,74.788,1.0,-0.0007474317985675695,0.0003203909954147394,-0.7071265272820292,-0.707086566903311,0.0004449159130576602,-0.0004411030278884272,-0.0004313018560009262,0.0,-0.0098066499999988,9.80665,1.0
24,74.908,1.0,-0.0007479798314351371,0.00032259988401318597,-0.7071225580579706,-0.7070905347343301,0.0004515289313674561,-0.00043313580834747936,-0.00039746303146035133,0.0,-0.0098066499999988,9.80665,1.0
25,75.028,0.9896907216494846,-0.0007490698167551508,0.0003247571751536163,-0.7071187481739791,-0.7070943426351192,0.0004683873857549573,-0.0004349627449889404,-0.00037906772152329025,0.0,-0.0098066499999988,9.80665,1.0
26,75.097,1.0,-0.0007503198036344713,0.0003259382804826448,-0.707116740731761,-0.7070963482583081,0.000489863248517125,-0.0004472765131675461,-0.0003862504601035163,0.0,-0.0098066499999988,9.80665,1.0
27,75.225,1.0,-0.0007526386198743706,0.00032812931645533576,-0.7071130167809795,-0.7071000688346588,0.000529702530162892,-0.0004701194454409055,-0.00039957496065814074,0.0,-0.0098066499999988,9.80665,1.0
28,75.294,1.0,-0.0007535350416830642,0.0003286835458192956,-0.7071108122130166,-0.707102272224477,0.0005379802684137042,-0.0004697902609006561,-0.0004065653705592481,0.0,-0.0098066499999988,9.80665,1.0
29,75.414,1.0,-0.0007544610551881091,0.0003285251386375671,-0.707106625271236,-0.7071064582646732,0.0005287479790341523,-0.00044658332384036253,-0.00041837828272643174,0.0,-0.0098066499999988,9.80665,1.0
30,75.508,1.0,-0.0007551864324337274,0.0003284010530118798,-0.7071033455001746,-0.7071097373294936,0.0005215160190201708,-0.00042840455647646773,-0.0004276317305907247,0.0,-0.0098066499999988,9.80665,1.0
31,75.593,1.0,-0.0007550734122975096,0.0003292296588833826,-0.7071005852562484,-0.7071124972535098,0.0005064940472366283,-0.0004459248727653183,-0.00043420616199728117,0.0,-0.0098066499999988,9.80665,1.0
32,75.7,1.0,-0.0007548833390126129,0.0003303312121409829,-0.707097123371379,-0.7071159587554813,0.0004870567326433952,-0.0004700908635277307,-0.00044237074768170727,0.0,-0.0098066499999988,9.80665,1.0
33,75.788,1.0,-0.0007559610995509715,0.00033007089594973933,-0.7070943365010369,-0.7071187445080921,0.00047194545499019253,-0.0004780053037890133,-0.00043993682661804505,0.0,-0.0098066499999988,9.80665,1.0
34,75.908,0.9795918367346939,-0.0007614436985991952,0.0003259235141624943,-0.7070907322624448,-0.7071223446119221,0.0004541829875230889,-0.00044990553444412167,-0.00040686850744134915,0.0,-0.0098066499999988,9.80665,1.0
35,75.988,1.0,-0.0007650987646313441,0.0003231585929709978,-0.7070883294367167,-0.7071247446811421,0.00044234134254502046,-0.00043117235488086174,-0.0003848229613235532,0.0,-0.0098066499999988,9.80665,1.0
36,76.083,1.0,-0.0007674319140820448,0.00032245778471925876,-0.7070852821409309,-0.7071277895945386,0.0004616760784068076,-0.00042127875835274006,-0.00039136901982367935,0.0,-0.0098066499999988,9.80665,1.0
37,76.207,1.0,-0.0007696403505798338,0.0003226198571812198,-0.7070812237528721,-0.707131845244448,0.000500838049105828,-0.00041351531226861606,-0.00041355839445027427,0.0,-0.0098066499999988,9.80665,1.0
38,76.306,1.0,-0.0007713213682689528,0.00032308066395682664,-0.7070779450439111,-0.7071351216650387,0.0005132586771768757,-0.00041484938288528127,-0.0004164104517962361,0.0,-0.0098066499999988,9.80665,1.0
39,76.428,1.0,-0.0007732555019470189,0.0003242027901090738,-0.7070738401517063,-0.7071392235661956,0.0004970464877025677,-0.00042909070860684624,-0.00039506656016343323,0.0,-0.0098066499999988,9.80665,1.0
40,76.508,1.0,-0.0007745237863260786,0.0003249386105367769,-0.7070711484191129,-0.7071419133374461,0.0004864155437849889,-0.00043842928285049525,-0.00038107056565012023,0.0,-0.0098066499999988,9.80665,1.0
41,76.585,1.0,-0.0007753588977573367,0.00032606283184020957,-0.7070691308758628,-0.7071439292268933,0.0004702966330495061,-0.0004465974487254826,-0.00037251637281063445,0.0,-0.0098066499999988,9.80665,1.0
42,76.708,0.9897959183673469,-0.000776659154704097,0.0003278950773839336,-0.707065958222927,-0.7071470992585207,0.0004440329931129109,-0.0004595735058628121,-0.00035928225838597846,0.0,-0.0098066499999988,9.80665,1.0
43,76.798,0.9897959183673469,-0.000777953180336286,0.0003293253571716362,-0.7070633497258548,-0.7071497053561744,0.000441383665893226,-0.0004622038302477453,-0.00036835962440818397,0.0,-0.0098066499999988,9.80665,1.0
44,76.93,1.0,-0.0007806407377650293,0.0003316296359139595,-0.707058862362754,-0.7071541880906432,0.00047568321274593515,-0.00045024094334803513,-0.0004249124201014644,0.0,-0.0098066499999988,9.80665,1.0
45,77.001,1.0,-0.0007820863178971563,0.0003328690585708152,-0.7070564487053286,-0.7071565992584258,0.0004941322114318608,-0.0004438063602428884,-0.00045533096930012085,0.0,-0.0098066499999988,9.80665,1.0
46,77.118,1.0,-0.0007885538225184661,0.0003306186968398185,-0.7070530640524152,-0.7071599772342739,0.0006627998198382396,-0.0004713371413527029,-0.00044630350312218204,0.0,-0.0098066499999988,9.80665,1.0
47,77.224,1.0,-0.000794836272129723,0.0003281354281601398,-0.7070500589919751,-0.7071629759788499,0.000829925949219612,-0.0005002280130283903,-0.00043199993437156094,0.0,-0.0098066499999988,9.80665,1.0
48,77.314,0.9595959595959596,-0.0007972590232452649,0.0003281417858517792,-0.7070474068842109,-0.7071656249403858,0.0008005848258035476,-0.0004786266331793818,-0.00043528209207579284,0.0,0.008198359399996871,9.834657792399993,1.0
49,77.395,1.0,-0.0007974357681132049,0.00032960298320648196,-0.7070449507222919,-0.7071680797960337,0.0006563239437528119,-0.0004274361575953721,-0.00044885323150083264,0.0,0.036794550799997966,9.879140756799995,1.0
50,77.548,0.9897959183673469,-0.0007982072492638157,0.00033219472207588683,-0.7070401891617303,-0.7071728384221594,0.00045547840660043577,-0.0003587963325234367,-0.0004713859539591675,0.0,0.06599717278226001,9.924567057661292,1.0
51,77.623,0.9897959183673469,-0.0007993086799194395,0.00033318703849299973,-0.7070376532014382,-0.7071753721721526,0.00047543331592967233,-0.00037151194861038625,-0.000477305426630342,0.0,0.039305685887096674,9.883046966935481,1.0
52,77.727,1.0,-0.0008008359970952377,0.0003345630505913962,-0.7070341366698332,-0.70717888563881,0.000503104123532879,-0.00038914426958428877,-0.00048551376206770345,0.0,0.002293490725805203,9.825472441129028,1.0
53,77.765,1.0,-0.0008014737665257729,0.0003350000070730791,-0.7070328618078046,-0.70718015931977,0.0005117243594597589,-0.00039711053517046263,-0.0004877551944380939,0.0,-0.0098066499999988,9.80665,1.0
54,77.908,1.0,-0.0008064235041752628,0.00033453905989323877,-0.7070283849534186,-0.7071846297725296,0.000496495229983331,-0.00047582677849364514,-0.00047195148125543147,0.0,-0.0098066499999988,9.80665,1.0
55,78.011,1.0,-0.0008099886998248951,0.00033420704898747965,-0.7070251603659936,-0.7071878497489928,0.0004855259968639464,-0.0005325244922159341,-0.00046056838714484305,0.0,-0.0098066499999988,9.80665,1.0
56,78.102,1.0,-0.0008138249218359828,0.00033315680097616135,-0.7070219739557435,-0.7071910314594466,0.0004977232349492303,-0.0005053692835338219,-0.000438065798279929,0.0,-0.0098066499999988,9.80665,1.0
57,78.188,1.0,-0.0008174575699210251,0.0003321563107985603,-0.7070189590789929,-0.7071940418880577,0.0005094801377548084,-0.0004788949748082258,-0.0004166689281535123,0.0,-0.0098066499999988,9.80665,1.0
58,78.303,1.0,-0.0008217314874308108,0.0003311143709583277,-0.7070152526997249,-0.7071977428910289,0.0005173756508156657,-0.0004633659700630233,-0.0004010582827807714,0.0,-0.0098066499999988,9.80665,1.0
59,78.401,1.0,-0.0008245090656069133,0.0003306647690084599,-0.7070125758070896,-0.707200416049046,0.0005125125559667749,-0.0004795671751101804,-0.00040701251580483347,0.0,-0.0098066499999988,9.80665,1.0
60,78.525,1.0,-0.0008283119481587785,0.0003296862306951855,-0.7070091939108373,-0.7072037930579957,0.0005027715824544428,-0.0004954246724955736,-0.0004133652336895465,0.0,-0.0098066499999988,9.80665,1.0
61,78.603,1.0,-0.0008323972468662805,0.00032666563185792125,-0.7070070970733434,-0.7072058858708982,0.00047558110207319634,-0.00047814659657888356,-0.00041042645461857356,0.0,-0.0098066499999988,9.80665,1.0
62,78.701,0.9795918367346939,-0.0008375300580628863,0.000322870520498281,-0.7070044625852102,-0.7072085153024936,0.00044141870364547187,-0.00045643824478611616,-0.0004067341424524788,0.0,-0.0098066499999988,9.80665,1.0
63,78.791,1.0,-0.0008416180346363906,0.0003202085698072337,-0.7070019097899433,-0.7072110637428909,0.00043733423016964864,-0.00044861011044122106,-0.0004098735060542805,0.0,-0.0098066499999988,9.80665,1.0
64,78.92,1.0,-0.0008454912036931625,0.00031900628118412453,-0.7069978275007027,-0.7072151407070317,0.0005180904068984069,-0.0004758186101680615,-0.0004350990699604146,0.0,-0.0098066499999988,9.80665,1.0
65,79.0,1.0,-0.0008478931689996876,0.00031826067583646,-0.7069952958484607,-0.7072176690568865,0.0005681717568077115,-0.0004926920983707523,-0.00045074283052235734,0.0,-0.0098066499999988,9.80665,1.0
66,79.096,0.99,-0.0008499495000866404,0.00031766645734199357,-0.7069927025478189,-0.7072202593200221,0.0005479436924317438,-0.0004910451415239785,-0.0004621201363648196,0.0,-0.006563813545815473,9.80665,1.0
67,79.19,1.0,-0.0008518363085458739,0.00031713070533242413,-0.7069902314722487,-0.7072227275632835,0.0005158180216943246,-0.0004860745815734614,-0.00047212626054081533,0.0,-0.0028912035856562034,9.80665,1.0
68,79.296,1.0,-0.0008537399853080225,0.00031686976308932367,-0.7069875249070842,-0.707225431060092,0.0004875619323497786,-0.00048089023874922957,-0.00047903553485481343,0.0,-0.0012602923694770838,9.80665,1.0
69,79.388,1.0,-0.0008549426464279023,0.00031733212052377047,-0.7069853363123165,-0.7072276172436939,0.0004790356377117242,-0.0004772351108899107,-0.0004762528589496529,0.0,-0.004883632931725892,9.80665,1.0
70,79.515,1.0,-0.0008565691695120692,0.0003179589304796116,-0.7069822887256133,-0.7072306615371686,0.00046734109314982306,-0.0004718429362586899,-0.0004722323320598246,0.0,-0.0098066499999988,9.80665,1.0
71,79.587,1.0,-0.0008562981848957763,0.00031790877959630255,-0.7069796264353221,-0.7072333232086839,0.0004633845092609999,-0.0004565080774361749,-0.00046360251156101173,0.0,-0.0098066499999988,9.80665,1.0
72,79.726,0.99,-0.0008557750340393221,0.0003178119605299141,-0.7069744867360099,-0.707238461713415,0.0004557461042534114,-0.0004269032805427104,-0.0004469421636535824,0.0,-0.0098066499999988,9.80665,1.0
73,79.8,1.0,-0.0008559350243049094,0.0003180499804513258,-0.7069720972095173,-0.7072408500462539,0.0004663876837585126,-0.00042411453789100074,-0.0004424526467919349,0.0,-0.0098066499999988,9.80665,1.0
74,79.905,1.0,-0.0008568188032504528,0.0003188214050772037,-0.7069692259587367,-0.7072437187680579,0.0005035161987179909,-0.00043958644848316993,-0.00044264255277812474,0.0,-0.0098066499999988,9.80665,1.0
75,79.996,0.9714285714285714,-0.0008575847450032569,0.0003194899730862978,-0.7069667375413936,-0.7072462049936213,0.0005356942450162021,-0.00045299543766304847,-0.00044280713796615595,0.0,-0.0098066499999988,9.80665,1.0
76,80.125,1.0,-0.0008627645705048027,0.00031695318702991095,-0.7069625438964408,-0.7072503917504382,0.000535976975533483,-0.00046492271975288733,-0.00046095209328053763,0.0,-0.0098066499999988,9.80665,1.0
77,80.192,0.96,-0.00086579968290249,0.0003153421507360039,-0.7069603096996324,-0.7072526220512286,0.0005323057631909643,-0.000470521115748413,-0.0004718848031919329,0.0,-0.0098066499999988,9.80665,1.0
78,80.302,0.98989898989899,-0.0008692579346423576,0.0003140084718381711,-0.706956960005945,-0.7072559667312265,0.0005232392231918927,-0.0004813200764012976,-0.00047379334186355826,0.0,-0.0098066499999988,9.80665,1.0
79,80.4,1.0,-0.0008698658829243542,0.00031494710746382695,-0.7069544921347781,-0.7072584323783625,0.000510232485283492,-0.0004935482954253928,-0.0004494771035759142,0.0,-0.0098066499999988,9.80665,1.0
80,80.493,0.99,-0.0008704428134368612,0.0003158378535167451,-0.7069521501754055,-0.7072607722271753,0.0004978893564520517,-0.0005051526257237678,-0.00042640148969070343,0.0,-0.0098066499999988,9.80665,1.0
81,80.565,1.0,-0.00024028536606981934,0.00018613333841703834,-0.7069485218324428,-0.7072638088612733,-0.004670373938889567,0.008564815776481001,-0.000605596896944452,0.0,-0.0098066499999988,9.80665,1.0
82,80.695,0.8021978021978022,0.0013663303958880396,-0.00014499871392953704,-0.7069406211119427,-0.7072702025190817,-0.01783727389650411,0.03169102235551584,-0.001075651482566272,0.0,-0.0098066499999988,9.80665,1.0
83,80.788,0.7692307692307693,0.0024003019875231493,-0.00040535390316266836,-0.7069348230254257,-0.7072741983107025,-0.02149253958717974,0.03817624872964358,-0.0011521146121335338,0.0,-0.008794852777776687,9.952348799999982,1.0
84,80.92,0.7083333333333334,0.003445876754890539,-0.0008607276239577218,-0.706926059358997,-0.7072777551966651,-0.0055979526128674024,0.010589950976685476,-0.0003103822299245758,0.0,-0.0036580361111096396,10.692050400000022,1.0
85,81.007,0.7735849056603774,0.004135005578837228,-0.0011608603035726435,-0.7069202833061236,-0.7072800995078677,0.004878025165656639,-0.007591927087764183,0.00024439593107678306,0.0,-0.0002724069444427213,11.17958100000005,1.0
86,81.108,0.75,0.003096021308607906,-0.0008395647085544665,-0.7069130322454692,-0.7072916573016939,0.009314313896000702,-0.015257287949324202,0.00019814887573010604,0.0,1.389712423972243e-15,11.347863114000011,1.0
87,81.188,0.75,0.0021645903154304947,-0.0005455696435128454,-0.7069072566533262,-0.7073013331919795,0.012372521527111782,-0.020535969763994653,0.0001208004683721772,0.0,1.4031632684090442e-15,11.45769759400001,1.0
88,81.308,0.8018867924528302,0.0008311835231756531,-0.00013070989908676447,-0.7069080993943149,-0.7073041797453659,0.014352191708981757,-0.023497778683900312,0.00041414657118739827,0.0,1.4106573103095453e-15,11.51889108999999,1.0
89,81.388,0.7352941176470589,1.5642889109769706e-05,0.00011577088752509385,-0.7069196076734502,-0.707292642395575,0.012669233404099742,-0.01976516267657236,0.001081104916287667,0.0,1.4010495642832588e-15,11.440437889999991,1.0
90,81.502,0.7843137254901961,-0.0011465025144340377,0.000467006008446969,-0.7069360069712181,-0.7072762016721231,0.010271017819643031,-0.014446184866130373,0.0020315205580554883,0.0,1.3873585261958015e-15,11.32864208,1.0
91,81.601,0.7431192660550459,-0.0016982072506579818,0.0005495883513847383,-0.7069203931310583,-0.7072906202243512,0.008968484545126517,-0.010808502094820024,0.00030927229579531313,0.0,1.3754689404882712e-15,11.231556244999997,1.0
92,81.729,0.6902654867256637,-0.002329929389308521,0.0006166930501558452,-0.7068948812862323,-0.7073143799002269,0.007423525238409598,-0.006280258791521071,-0.002371801012195718,0.0,1.3600965468462126e-15,11.106031124999996,1.0
93,81.8,0.7798165137614679,-0.002604837936764877,0.0006278440177566864,-0.7068947380299,-0.7073136411984141,0.006573224131017907,-0.004808435391634694,-0.002851241251453747,0.0,1.3500132173916247e-15,11.023694491599997,1.0
94,81.931,0.6972477064220184,-0.0029766305839080353,0.0006016513920764385,-0.7069196012430828,-0.7072873120608517,0.005016320800408702,-0.003958274969831099,-0.0019281797963194432,0.0,1.328616766991084e-15,10.848979215199998,1.0
95,81.988,0.7589285714285714,-0.003138402957092469,0.000590254600749918,-0.7069304195877502,-0.7072758558712253,0.00433888958021994,-0.003588357839733338,-0.0015265423692762583,0.0,1.3193068610916118e-15,10.772958064399996,1.0
96,82.133,0.7927927927927928,-0.003440822477502983,0.000474783029662159,-0.7069592768627546,-0.7072456739944727,0.003906997059846663,-0.002315367449564786,8.487817923822586e-07,0.0,1.297409353338546e-15,10.59415134422311,1.0
97,82.192,0.7927927927927928,-0.0035541761597491354,0.0004201098443941007,-0.7069711376434004,-0.7072333007294525,0.0038460689964166265,-0.0017678790514272615,0.0006672949896590371,0.0,1.2886580747120136e-15,10.522691731274907,1.0
98,82.308,0.6796875,-0.0037359106362704103,0.0003292432362635847,-0.7069915568873629,-0.7072120347689128,0.003453668107145558,-0.0009261240681386053,0.0013779563632109343,0.0,1.2734037956483072e-15,10.398131089999994,1.0
99,82.419,0.6875,-0.003842995460668146,0.0002693029144584714,-0.7070063845275434,-0.707196658257634,0.0026353262364864826,-0.0005018612004018503,0.0010838718985074504,0.0,1.2619774405527605e-15,10.304827820000005,1.0
100,82.512,0.671875,-0.003929695936327469,0.00021929638772289427,-0.70701870235158,-0.7071838966439282,0.001957583103292437,-0.00012916900176451092,0.0008395640012881263,0.0,1.2524215010001447e-15,10.226797651960787,1.0
101,82.593,0.782258064516129,-0.0038855596120801732,0.00018421273973180056,-0.7070252564963679,-0.7071775930214436,0.0016801480496046594,0.000878191177788025,0.0007094932149401775,0.0,1.2447918203322108e-15,10.16449658137255,1.0
102,82.694,0.75,-0.003830525429994041,0.00014046646260710552,-0.7070334289485107,-0.7071697329489626,0.0013342105135248545,0.002134282265871992,0.0005473061850495329,0.0,1.2352782678944168e-15,10.086812530392157,1.0
103,82.788,0.7068965517241379,-0.003756844029353005,8.514685127221011e-05,-0.7072067373209479,-0.7069964172592632,0.0010167959663809315,0.0031498297455301075,0.00045669588317864086,0.0,1.2253991054821643e-15,10.006143047410363,1.0
104,82.924,0.7281553398058253,-0.00354992295445774,-6.01205311557526e-05,-0.7081975468800972,-0.7060042659661788,0.0005778664049592173,0.0039336199452915215,0.000595075071351494,0.0,1.2065281142831221e-15,9.852049710358562,1.0
105,83.028,0.73,-0.0033848921044336206,-0.00016979627859075756,-0.7088669383178906,-0.7053340785992311,0.00023157588004257742,0.004421723243522354,0.0006677847627707436,0.0,1.1921418600990397e-15,9.734577030120482,1.0
106,83.108,0.72,-0.0032178599126239495,-0.0002458405172078733,-0.7088611910678008,-0.7053405706119212,-9.754136200979506e-05,0.004141005115157148,0.0005284530334137217,0.0,1.1813379689851428e-15,9.646356564257028,1.0
107,83.213,0.7115384615384616,-0.002998630160873773,-0.00034564858039283015,-0.708853647802058,-0.705349091378577,-0.000529507742203501,0.003772562571677844,0.00034558013863264416,0.0,1.1671578618981546e-15,9.530567202811254,1.0
108,83.308,0.7345132743362832,-0.002806086879247168,-0.00043516025237621907,-0.7088458910193984,-0.7053576386915461,0.00014389063307684846,0.0037864498451960584,0.00014821672289421758,0.0,1.1542334315436866e-15,9.425031219999994,1.0
109,83.388,0.6972477064220184,-0.002649859238409422,-0.0005097331209943576,-0.708838409958745,-0.7053656898631189,0.0017947270658475898,0.004151759718601811,-5.047684297802531e-05,0.0,1.143253150370788e-15,9.335370419999999,1.0
110,83.511,0.7553191489361702,-0.0024109078824158733,-0.0006262720589943621,-0.7088269376282614,-0.7053780303317569,0.0042811477126136945,0.004711154896191672,-0.00034844901770718877,0.0,1.1263942957399093e-15,9.197707424901195,1.0
111,83.628,0.7446808510638298,-0.0023285160476452967,-0.0009556637218063734,-0.708819483208748,-0.7053853348745287,0.0006418728670879946,0.004979976511784917,0.00024070602974192885,0.0,1.1130649722014636e-15,9.088865238339926,1.0
112,83.748,0.7383177570093458,-0.0022440116017267567,-0.0012935013246904875,-0.7088118376502726,-0.705392826713269,-0.003090716718066569,0.005255690989316451,0.0008449676168692289,0.0,1.099393871136391e-15,8.977232226482213,1.0
113,83.805,0.7340425531914894,-0.0021009033817911958,-0.0013004318374131734,-0.7088102747582136,-0.7053947801401097,-0.0038067738236154643,0.004583604335116978,0.00042476794525672906,0.0,1.0910533420727616e-15,8.909126638247008,1.0
114,83.913,0.7078651685393258,-0.0017600729595736143,-0.0012096624977730557,-0.7088087133938575,-0.7053973951466764,-0.004448302585512857,0.0027667589993977224,-0.000849972434751878,0.0,1.074000549822919e-15,8.76988002231076,1.0
115,83.993,0.7078651685393258,-0.0015076059801531652,-0.001142425949891482,-0.7088075568276678,-0.7053993321885778,-0.0049235090758072576,0.0014209476396055839,-0.0017942245680916552,0.0,1.0613688518600718e-15,8.666734380876495,1.0
116,84.105,0.8,-0.0012703761022880723,-0.00101208077577713,-0.708810507225853,-0.705397017950463,-0.004455299568418149,0.00048229187973715154,-0.0010932751678938925,0.0,1.0536989231349032e-15,8.604104659960157,1.0
117,84.197,0.7666666666666667,-0.0010975401549190315,-0.0008981467825114247,-0.7088137969808698,-0.7053941642200401,-0.003855832409952184,-0.00010952114849260798,-0.00013403303780222054,0.0,1.0492969677842142e-15,8.568159966733067,1.0
118,84.305,0.7244897959183674,-0.0009368479515894274,-0.0007538804446086141,-0.7088192458455438,-0.7053891167107708,-0.0029531465098261113,-0.0007516129361465892,0.0005922953411936788,0.0,1.0498864470224812e-15,8.572973430000005,1.0
119,84.388,0.7714285714285715,-0.0008684893706997632,-0.0006292678635667249,-0.7088255067567766,-0.7053830198829786,-0.0019994734416249604,-0.0011762923272326826,0.0006282412433065496,0.0,1.057860876224299e-15,8.638089586000003,1.0
120,84.548,0.6952380952380952,-0.0007572397760318582,-0.00039586187399719966,-0.7088328951976725,-0.7053759169431041,-0.0005465957862325015,-0.0019887105128727914,1.5381168108408345e-05,0.0,1.07418443672296e-15,8.771381572800001,1.0
121,84.628,0.7522935779816514,-0.0007411119458909639,-0.0002922649600300366,-0.708827582451934,-0.7053813131642069,-0.0005620067906565964,-0.0023829106367193142,-0.0016036773440427983,0.0,1.084176492590298e-15,8.8529729008,1.0
122,84.678,0.7009345794392523,-0.0007310320520529052,-0.00022751688880056202,-0.7088242619858476,-0.7053846858023961,-0.0005716386684216552,-0.0026292857141233823,-0.002615588914137267,0.0,1.090421527507384e-15,8.903967480799997,1.0
123,84.796,0.7009345794392523,-0.0007229228457713581,-9.425839674805163e-05,-0.7088223034488332,-0.7053867072366384,-0.0003868760536479649,-0.00281447020871008,-0.003338718643271914,0.0,1.1048195893715922e-15,9.021536578063246,1.0
124,84.911,0.7777777777777778,-0.0007579043952751501,-1.7850734392598478e-05,-0.7088364709813256,-0.705372436270064,0.0003607058637635646,-0.0019111335599655043,0.0005104293027090477,0.0,1.117921061225619e-15,9.128518214426878,1.0
125,84.988,0.7864077669902912,-0.0007813268240733416,3.3309178662792937e-05,-0.7088459570682987,-0.7053628809272272,0.000861260712813034,-0.0013062907603712977,0.003087684883931136,0.0,1.1266933510757065e-15,9.200149397035572,1.0
126,85.135,0.6796116504854369,-0.0008272647044087827,0.00011700550057403361,-0.7088349762404628,-0.7053738524700088,0.00010327917989339799,-0.0008466620852705003,0.003477438239380694,0.0,1.1402280829076549e-15,9.310668869600004,1.0
127,85.239,0.86,-0.0008599867121650083,0.00017368451235473743,-0.7088219302796828,-0.7053869141621217,-0.0007438345113769469,-0.0006475726307835358,0.0029313296210020587,0.0,1.1492209331882592e-15,9.384101064800003,1.0
128,85.295,0.75,-0.0008801839279735454,0.0002022594412624892,-0.7088166795230686,-0.705392158176273,-0.0008976871320027692,-0.0007873619303403968,0.0019989987523595263,0.0,1.1534283123886332e-15,9.418456923185484,1.0
129,85.397,0.7777777777777778,-0.0009220145427719995,0.00025050243592279146,-0.7088105861918093,-0.7053982094643239,-0.000586542652238288,-0.0015251794146963634,-0.0009478589974254363,0.0,1.159849618452573e-15,9.470890866330647,1.0
130,85.477,0.8181818181818182,-0.0009548228681041185,0.00028834007879361453,-0.7088058071084686,-0.705402955572599,-0.00034250776614851337,-0.002103859794583362,-0.003259119977648799,0.0,1.164885936934094e-15,9.512015527620967,1.0
131,85.657,0.8163265306122449,-0.0010708582253635523,0.000282201177156572,-0.7088209076199797,-0.7053876139159156,0.00020953512541015704,-0.0017731859907508284,-0.001985831023194047,0.0,1.1734372570475142e-15,9.581842355399996,1.0
132,85.669,0.865979381443299,-0.001079372378441002,0.0002801088577917573,-0.708822391051013,-0.7053861113300035,0.00024639264750291805,-0.0017210344597697624,-0.0017815732629971148,0.0,1.1739560753329338e-15,9.586078828199996,1.0
133,85.803,0.845360824742268,-0.0011861033267169762,0.00026478939703393034,-0.7088302686518326,-0.7053780297178817,0.0006030399324372282,-0.001486907083541114,8.939782623171392e-06,0.0,1.1792163162823259e-15,9.629031955199999,1.0
134,85.917,0.9101123595505618,-0.001302901598138376,0.0002696989583389191,-0.7088175947274105,-0.7053905521269663,0.0007839476047083676,-0.0020643966756760885,0.0004385333280078929,0.0,1.182502165423316e-15,9.6558629496,1.0
135,86.004,0.8314606741573034,-0.0013920371210652338,0.00027344572880851574,-0.7088079225219305,-0.7054001087023204,0.0009220087230205529,-0.002505112417042253,0.0007663810336962329,0.0,1.1850097871361769e-15,9.6763392348,1.0
136,86.11,0.84,-0.0014926799583173784,0.00022277577627316048,-0.7088084746393106,-0.705399355856007,0.002301283970475111,-0.001541465597925772,0.0012158946115523323,0.0,1.1867103581828296e-15,9.6902254512,1.0
137,86.18,0.84375,-0.0015584712324194928,0.00018465798486513562,-0.7088098792672696,-0.7053978136259572,0.0033142229430377698,-0.0007785883233882322,0.0015169640192762082,0.0,1.1877191715155898e-15,9.6984630372,1.0
138,86.281,0.7604166666666666,-0.0016467310570741618,0.00013844331990221,-0.7088137984758315,-0.7053936965814478,0.004388344176113599,2.2255925578060264e-05,0.001876286473125219,0.0,1.1892468031337696e-15,9.710937096,1.0
139,86.446,0.88,-0.0017284670525527645,0.00014521672919555776,-0.7088379272264522,-0.7053692512293723,0.0025145310536027793,-0.001478198788827218,0.0017600954696536117,0.0,1.1924173593224439e-15,9.736826652,1.0
140,86.525,0.8764044943820225,-0.0017671437568550397,0.00014533598536439705,-0.7088468060208394,-0.7053602348802108,0.001757027460224629,-0.002025312406805172,0.00169855857835031,0.0,1.193806027291445e-15,9.748165986491935,1.0
141,86.598,0.9425287356321839,-0.0017995949126969081,0.00012299545948201424,-0.7088357940092035,-0.7053712206199115,0.0020607677119363326,-0.0012998308835273568,0.001599248256459236,0.0,1.1941595381079364e-15,9.751052621370969,1.0
142,86.708,0.8620689655172413,-0.0018484939146504128,8.933165335787282e-05,-0.7088192005670124,-0.705387774474255,0.002518458502186885,-0.00020663954708123903,0.001449602565938426,0.0,1.1946922256396357e-15,9.75540234516129,1.0
143,86.795,0.9148936170212766,-0.0018648133805872693,5.7383808615274826e-05,-0.7088116580979381,-0.7053953150063251,0.00233148746874243,0.0002997098198397913,0.001491868189458136,0.0,1.1952600655321739e-15,9.760039109760957,1.0
144,86.914,0.8085106382978723,-0.0018318980902926442,5.328749879137355e-07,-0.708815132519809,-0.7053919105134956,0.0007193167197640112,0.00010706646116524204,0.001946559067318353,0.0,1.1963988322424609e-15,9.76933784561753,1.0
145,87.056,0.9361702127659575,-0.0017981323541516267,-5.291011185033526e-05,-0.708815348859612,-0.7053917810353619,-0.000671099515889669,-0.0003324420097658505,0.0018390421303401462,0.0,1.197561522623132e-15,9.778831933067728,1.0
146,87.115,0.9484536082474226,-0.0017897439510812401,-6.0380597012439175e-05,-0.7088114166689639,-0.705395752813758,-0.0007029066274621561,-0.0007296191362396438,0.0011289828239877942,0.0,1.1978438219336652e-15,9.78113708187251,1.0
147,87.224,0.9514563106796117,-0.001774246731849507,-7.418200180344642e-05,-0.7088041521133599,-0.7054030905060492,-0.0007616689183333684,-0.0014633870478608106,-0.00018282165723959446,0.0,1.1983653579480403e-15,9.785395746613545,1.0
148,87.308,0.9223300970873787,-0.001774008711715823,-7.568539943278796e-05,-0.708802516414865,-0.705404734631313,-0.0008126280801370751,-0.0017112340182065951,-0.0007947679394856134,0.0,1.1985663167792674e-15,9.7870367,1.0
149,87.394,0.8314606741573034,-0.0017857485009538884,-6.787460329306176e-05,-0.7088048987951949,-0.7054023118016206,-0.0008706101221032441,-0.0016397940451279283,-0.0010127991023473441,0.0,1.1985663167792674e-15,9.7870367,1.0
150,87.508,0.9775280898876404,-0.0018013105471531832,-5.75207572473789e-05,-0.7088080568342369,-0.7053991001436561,-0.0009474700381979281,-0.0015450945459306324,-0.001301817155443107,0.0,1.1985663167792674e-15,9.7870367,1.0
151,87.622,0.9,-0.0018085846710019975,-6.370761185606362e-05,-0.708807604778116,-0.7053995351951124,-6.559929903601205e-05,-0.0009092512764036982,-0.0024566606357693086,0.0,1.1985663167792674e-15,9.7870367,1.0
152,87.729,0.99,-0.0018148250426638004,-7.068627328703483e-05,-0.7088069247498158,-0.7054002018565557,0.0008300355374812566,-0.0002741177584976327,-0.0036019255579448576,0.0,1.1985663167792674e-15,9.7870367,1.0
153,87.805,0.8367346938775511,-0.0018187809427576572,-9.112075617210912e-05,-0.7087989885151604,-0.7054081621098275,0.0009557621115596773,-0.00012947175543689244,-0.004066255342747488,0.0,1.1987521809137045e-15,9.788554395833334,1.0
154,87.877,0.826530612244898,-0.0018221003542640136,-0.000124390850131964,-0.7087847711280546,-0.7054224323722573,0.0006161087020744191,-0.00026789564331659366,-0.004192354290613092,0.0,1.1990953147003576e-15,9.791356295833333,1.0
155,87.96,0.8529411764705882,-0.0018259268980838417,-0.00016274387511346875,-0.7087683816401409,-0.7054388828136695,0.00022456379947330266,-0.00042746762517793834,-0.00433771835551374,0.0,1.1994908717044162e-15,9.794586263888888,1.0
156,88.119,0.9509803921568627,-0.0018308054794930171,-0.000200037120665404,-0.7087633743633521,-0.7054438935922414,-0.0003653513482700781,-0.00034281584115354667,-0.0030557549718475525,0.0,1.1997672850325534e-15,9.79684335,1.0
157,88.2,0.8076923076923077,-0.0018325735338826548,-0.0002084517667923907,-0.7087685436216568,-0.705438692982744,-0.0006190220611244916,-0.00018549947293444274,-0.001946180809221815,0.0,1.1997672850325534e-15,9.79684335,1.0
158,88.304,0.9247311827956989,-0.0018084932945845594,-0.00022702373028308156,-0.7087706916056111,-0.7054365881829575,-0.0007751935219857753,0.00016710831341337366,-0.0010778736653737806,0.0,1.1999450283340398e-15,9.7982947342,1.0
159,88.388,0.9032258064516129,-0.0017505044529799222,-0.0002533854290445017,-0.7087658608739086,-0.7054415758281042,-0.000653382326709093,0.0006722023601178639,-0.001190226545091731,0.0,1.2003485536671437e-15,9.8015897686,1.0
160,88.508,0.9166666666666666,-0.0016676632506875933,-0.0002910449987036688,-0.7087589598286193,-0.7054487010354564,-0.0004793663334567105,0.0013937652839813358,-0.0013507306589744983,0.0,1.2009250184287209e-15,9.8062969606,1.0
161,88.598,0.90625,-0.0015940063579173438,-0.0003318168586008354,-0.7087757536250697,-0.7054319715279729,-0.00019022827078756617,0.0016379672529018786,0.0006404978066054453,0.0,1.2005775768660956e-15,9.803459884939759,1.0
162,88.708,0.7916666666666666,-0.001502416008709747,-0.000383350354144045,-0.7087992628995534,-0.7054085267281724,0.0001847045063639429,0.0018961070363510695,0.003360982870226646,0.0,1.2000470286417525e-15,9.799127629919678,1.0
163,88.813,0.8415841584158416,-0.001437942200160857,-0.0004200820595596524,-0.708814804571494,-0.705393030200132,-7.541407088922341e-05,0.0015514851603434506,0.003930763644351835,0.0,1.1999921675341646e-15,9.798679654980079,1.0
164,88.897,0.8969072164948454,-0.0014090234748896206,-0.000437167121020711,-0.7088204269822186,-0.7053874277137749,-0.0008936284121081911,0.0006923046653191831,0.002385419567553343,0.0,1.2003940851966189e-15,9.801961561752988,1.0
165,89.0,0.9166666666666666,-0.001373563609378465,-0.00045811666066938807,-0.7088273211287023,-0.705380557998361,-0.0018969150447932619,-0.0003612142750080956,0.0004905333781458424,0.0,1.200886912806533e-15,9.805985804581672,1.0
166,89.108,0.8854166666666666,-0.0013553738296342567,-0.00044910719774184744,-0.7088404014396801,-0.7053674542494014,-0.0013300800900905665,-0.0005965925515629406,0.0005858706710860501,0.0,1.2009682532858392e-15,9.80665,1.0
167,89.189,0.9142857142857143,-0.0013443923831819944,-0.0004380100607205447,-0.7088510315255414,-0.7053567997119593,-0.0006781405061483622,-0.00065133120305836,0.0009491116097196804,0.0,1.2009682532858392e-15,9.80665,1.0
168,89.308,0.912621359223301,-0.0013286322227391374,-0.0003894526350909861,-0.7088558044837912,-0.7053520566578377,-0.00021313942758550796,-0.0007637511552011202,0.0010319580997606341,0.0,1.2009682532858392e-15,9.80665,1.0
169,89.39,0.8617021276595744,-0.0013182613542800099,-0.00031371004772477815,-0.7088448776423354,-0.7053630903994829,-0.0005387246173115601,-0.0008831684714213288,0.0004980759387704271,0.0,1.2009682532858392e-15,9.80665,1.0
170,89.544,0.8191489361702128,-0.0012785441797443823,-0.00017430844216759136,-0.7088279533461901,-0.7053802228383528,-0.0011199836451560152,-0.0009815925327129767,-0.0005342907223384552,0.0,1.2009682532858392e-15,9.80665,1.0
171,89.599,0.7821782178217822,-0.0012332015655731462,-0.00012890434085547224,-0.708827445969989,-0.705380815910469,-0.0012810770161450003,-0.0008230132507160216,-0.0009487288151867927,0.0,1.2009682532858392e-15,9.80665,1.0
172,89.704,0.7976190476190477,-0.001146638393064442,-4.2223783805082205e-05,-0.7088264773426962,-0.7053819481390543,-0.0015886189062148126,-0.0005202709850855376,-0.0017399288106243523,0.0,1.2009682532858392e-15,9.80665,1.0
173,89.795,0.8214285714285714,-0.0010940559351757,1.9121581373267587e-05,-0.7088266632641954,-0.7053818562945241,-0.0015856532403267852,-0.0006227226275950777,-0.0019691432244144293,0.0,1.2009682532858392e-15,9.80665,1.0
174,89.91,0.7582417582417582,-0.0010852646577605035,6.124258988753653e-05,-0.7088295330808819,-0.7053789827687371,-0.0008893939468544217,-0.0016896561440080035,-0.0010858086461667275,0.0,1.2009682532858392e-15,9.80665,1.0
175,89.998,0.9120879120879121,-0.0010785374193906128,9.347431814193804e-05,-0.7088317291145204,-0.7053767838968306,-0.00035660422663201887,-0.0025060922261327884,-0.0004098656645510027,0.0,1.2009682532858392e-15,9.80665,1.0
176,90.13,0.9340659340659341,-0.0010880760331951984,0.00011524683477267774,-0.7088312308950496,-0.705377266775405,-0.00022254310632971339,-0.0011962119659240256,-0.0014356904641978602,0.0,1.2009682532858392e-15,9.80665,1.0
177,90.212,0.9120879120879121,-0.0010958041367032543,0.00012633176074311377,-0.7088305731457816,-0.7053779139769101,-0.00020034190335425038,-0.00014974873903178402,-0.002260257289358423,0.0,1.2009682532858392e-15,9.80665,1.0
178,90.285,0.9456521739130435,-0.0012166261204348077,0.000276381712434705,-0.7088316812802699,-0.7053762341589772,-0.000574064558843087,-0.0035732704772039998,-0.002456931336539837,0.0,1.2009682532858392e-15,9.80665,1.0
179,90.373,0.9411764705882353,-0.001814737555527686,0.0010139239909315219,-0.7088397427486058,-0.7053652506760352,-0.0025871134901712394,-0.024994435215213235,-0.0005600408129168319,0.0,1.2009682532858392e-15,9.80665,1.0
180,90.51,0.7857142857142857,-0.002745888312433562,0.002162143219954874,-0.7088522929890834,-0.7053481513900914,-0.00572106466735229,-0.05834329395506557,0.0023930728431778127,0.0,1.2009682532858392e-15,9.80665,1.0
181,90.599,0.7857142857142857,-0.005816638107890279,0.005816483390112156,-0.7088041335862673,-0.705325326509828,-0.008005750581622327,-0.08920990693569462,0.0019041422246954833,0.0,1.202937841221228e-15,9.822732906,1.0
182,90.729,0.6739130434782609,-0.010609472954631766,0.011516939054353116,-0.7087267666926416,-0.7052905258362226,-0.011373950738459912,-0.13544338706135867,0.0008897940190508869,0.0,1.2060603586797713e-15,9.848230196000001,1.0
183,90.797,0.5978260869565217,-0.013503288652987085,0.014943123184512803,-0.7086519592107147,-0.7052427408405743,-0.011932206051867632,-0.14744131550902412,0.0007418980364621398,0.0,1.2078309290189012e-15,9.862688,1.0
184,90.896,0.5981308411214953,-0.018429638228472326,0.020750783580995313,-0.7084797238162073,-0.7051186196200893,-0.010525430896363798,-0.14243695317279725,0.001232297178441011,0.0,1.210661782758789e-15,9.885803675,1.0
185,90.992,0.6666666666666666,-0.023206704483488313,0.026382454268493505,-0.7083127076760789,-0.7049982596487099,-0.009161285291026746,-0.1375842381800924,0.0017078357403599162,0.0,1.213406853052014e-15,9.908218875000001,1.0
186,91.108,0.7352941176470589,-0.02715434900656468,0.031080142783667993,-0.7081240368126862,-0.7048597997515557,-0.007400418081915517,-0.10925754892778194,0.0018696296706713542,0.0,1.2158959510525848e-15,9.928543902610443,1.0
187,91.204,0.7452830188679245,-0.029963260077686876,0.034438828052142954,-0.7079711944856949,-0.7047469634493133,-0.005914897624268719,-0.08017508978824793,0.0018998844587397516,0.0,1.2177480466721099e-15,9.943667411044176,1.0
188,91.297,0.7358490566037735,-0.032239036804210405,0.03718546088208844,-0.7078395519792925,-0.7046544146533023,-0.005020977608859527,-0.0580350765883926,0.0015643052123487512,0.0,1.2192614017198891e-15,9.9560248928,1.0
189,91.39,0.7938144329896907,-0.03353195918893727,0.03881299076275894,-0.7077441544337075,-0.704598856470888,-0.005330208882689476,-0.04921063655614854,0.0004234546339139417,0.0,1.2201549221003337e-15,9.9633210404,1.0
190,91.508,0.6804123711340206,-0.03517244135450456,0.04087802867586757,-0.7076231123866212,-0.7045283632932012,-0.00572256684303282,-0.03801403522491503,-0.0010240762075408617,0.0,1.2212886361314354e-15,9.972578517999999,1.0
191,91.602,0.7075471698113207,-0.0357483051106415,0.041631147847983004,-0.7075754692820588,-0.7045032437124229,-0.004619390211999373,-0.023101840645074315,-0.00036571971420195444,0.0,1.2217882389248025e-15,9.9766580844,1.0
192,91.708,0.7425742574257426,-0.036299555389723216,0.04236067512975489,-0.7075282925889641,-0.7044790838104832,-0.0031853271834552596,-0.005481447950005908,0.0006198639934882316,0.0,1.2222974494641956e-15,9.980816103999999,1.0
193,91.794,0.7333333333333333,-0.03643276161159938,0.0425658375419275,-0.7075129110154815,-0.7044754322865229,-0.0019067728724331337,0.006246548414230094,0.001068758495384842,0.0,1.222710582543326e-15,9.9841895916,1.0
194,91.9,0.6704545454545454,-0.03570371710290565,0.04171874441823423,-0.7075590708153479,-0.7045162989240841,-3.5815164445931504e-06,0.013398242756724695,0.0006244429084472132,0.0,1.2232197930827191e-15,9.9883476112,1.0
195,91.996,0.686046511627907,-0.03504345037805107,0.04095156574017255,-0.7076008759171137,-0.7045533102184791,0.0017200634852050731,0.01987524895369969,0.00022204388631509846,0.0,1.223680964891981e-15,9.9921133648,1.0
196,92.102,0.6744186046511628,-0.034956142476637475,0.040109362114361724,-0.7108898897343073,-0.701256644565129,0.01996665789218898,0.012697047142096577,0.1338052673387576,0.0,1.2241885677607244e-15,9.996258256772908,1.0
197,92.204,0.72,-0.03503386067603382,0.03930017201634985,-0.7148720589616874,-0.6972432512836034,0.04164359155407623,0.0021782780392663424,0.29612544435410976,0.0,1.2246766106365615e-15,10.000243429282868,1.0
198,92.287,0.6933333333333334,-0.035180595002773804,0.03873122755521784,-0.7220340798683282,-0.6894232893017503,0.05273477101193255,-0.004450112341823913,0.4366923856590455,0.0,1.225337698166279e-15,10.005641618623482,1.0
199,92.394,0.6419753086419753,-0.03575844269625881,0.038414483155914676,-0.7495233550309862,-0.6581412006324022,0.036550707278041696,-0.004005784187692058,0.6573954173910475,0.0,1.2274187281760212e-15,10.022634518218624,1.0
200,92.506,0.5327102803738317,-0.036363292618411314,0.03808293761645718,-0.7782971757619915,-0.6253973321186933,0.019610378883689328,-0.0035406930357035926,0.8884116749049092,0.0,1.229597002578742e-15,10.040421478542509,1.0
201,92.598,0.5686274509803921,-0.0341517947001132,0.03985385856959448,-0.803557323861774,-0.590198920086871,0.0007286450862898017,0.0013577732816335924,0.9399124860763526,0.0032165811999997503,-0.00321658119999852,10.048442762399999,1.0
202,92.708,0.4307692307692308,-0.031112706147434315,0.042269194614461277,-0.833996546617133,-0.5469033864558845,-0.022571507260201892,0.007873181030153938,0.9813293099403355,0.007531507199999728,-0.007531507199998497,10.057072614399999,1.0
203,92.8,0.45901639344262296,-0.028179354797576408,0.04439064789342379,-0.8581946353640985,-0.508716226057864,-0.03444513010669998,0.011908059386885264,1.0095941730704427,0.008478259163346883,-0.011135040836651884,10.064279681673305,1.0
204,92.903,0.4098360655737705,-0.02414744148736544,0.04695932386096721,-0.8828792419851176,-0.46218868343805525,-0.03319727896575427,0.013724135828623958,1.0290639039529759,0.0044540163346611355,-0.015159283665337631,10.072328167330678,1.0
205,92.988,0.43636363636363634,-0.020820134386706424,0.04907910499923087,-0.9032500338568292,-0.4237921676838502,-0.032167498897983704,0.015222839688310995,1.0451311575938986,0.0011330392430277895,-0.018480260756970977,10.078970121513944,1.0
206,93.148,0.43636363636363634,-0.014437772517102366,0.051823433154416725,-0.934538223412276,-0.3453410942576307,-0.02427876690974049,0.015874553419857513,1.063512709036291,0.0,-0.024731511752986723,10.091472623505975,1.0
207,93.263,0.47619047619047616,-0.009831484408015127,0.05359768889045932,-0.9559037790487696,-0.28797182055299864,-0.017661969544759043,0.01599779763663446,1.0748369456287403,0.0,-0.029224598406373446,10.10045879681275,1.0
208,93.308,0.4953271028037383,-0.008096033190350198,0.05379934738208545,-0.9615889111549577,-0.26445166329658537,-0.01328595928847726,0.016222108677029775,1.0769608688354495,0.0,-0.029419949999998765,10.103987628,1.0
209,93.391,0.564625850340136,-0.004910539210493712,0.05405772002819725,-0.9714580155820058,-0.22082304320418752,-0.004802688203751564,0.01667643531411902,1.0803463664054873,0.0,-0.02941994999999876,10.110499243600001,1.0
210,93.516,0.4853801169590643,-0.00011310851793867004,0.05444683545908851,-0.986321124658886,-0.15511729005298466,0.007973322466016293,0.017360662177205242,1.085445007324219,0.0,-0.029419949999998758,10.120305893600001,1.0
211,93.599,0.3475609756097561,0.0027153418276766074,0.052534948026936805,-0.9904582116240127,-0.11049422118713428,0.028883918419481108,0.014769546370953356,1.086575646877289,-0.0031773546000001206,-0.02941994999999876,10.1109307362,1.0
212,93.708,0.3048780487804878,0.006418235266494416,0.04995378324402334,-0.9957053871421455,-0.05186059559600037,0.05674778997898044,0.011268004216253964,1.0879873466491699,-0.007453053999999911,-0.029419949999998765,10.098103638000001,1.0
213,93.813,0.42857142857142855,0.00955664477990078,0.04625937741416519,-0.9974900277801682,0.004810489061589349,0.07695587519630502,0.0048161195405570165,1.0878251430047936,-0.011564814342629515,-0.02941994999999877,10.071703042231077,1.0
214,93.914,0.48872180451127817,0.012025801985579112,0.04115645076860961,-0.9950128055873252,0.0595652698797525,0.08788671077366347,-0.005338712862555153,1.0857169675637053,-0.015510916533864464,-0.029419949999998772,10.02829591812749,1.0
215,94.028,0.49019607843137253,0.014658025250185827,0.03532015498563208,-0.9915610424072643,0.1212649350178508,0.09890994885563849,-0.01719769127666942,1.0833292756080628,-0.020319378800000027,-0.029066910599998764,9.978933227199999,1.0
216,94.206,0.620253164556962,0.01594907219954695,0.024812755006609892,-0.9742271417836151,0.21573108062974258,0.09217557844519625,-0.04294785223901224,1.0794523482322693,-0.034284048399999816,-0.022084575799998882,9.8951452096,1.0
217,94.268,0.25,0.016398762709998568,0.02115287411504045,-0.9681894910045914,0.24863501898894008,0.08982989886403102,-0.05191700942814268,1.0781019577980042,-0.03914814679999963,-0.019652526599998978,9.865960619200003,1.0
218,94.311,0.0,0.01588489388757788,0.0187392804575694,-0.9610732905400639,0.2705336887337283,0.08611315295871957,-0.056971780376961746,1.0779311903919357,-0.0392266,-0.017972346613544486,9.849080366135457,1.0
219,94.391,0.45454545454545453,0.014892280753920906,0.014254397942312579,-0.9477041114917802,0.3112345669462455,0.07910570083742559,-0.0663243653735083,1.0776474057915677,-0.0392266,-0.014846721115536473,9.817824111155376,1.0
220,94.55,0.3125,0.012404790511116183,0.005558939760002053,-0.9190737997333699,0.391395760337969,0.06409774846341236,-0.08352993186338825,1.076785726719592,-0.0392266,-0.008625125903613263,9.75678968313253,1.0
221,94.605,0.25,0.010778804309013998,0.002875700361493156,-0.906107530404436,0.4180359770070499,0.057298949444628516,-0.08742489103212912,1.0760449199791413,-0.0392266,-0.006458998393572918,9.737294535542167,1.0
222,94.703,0.20689655172413793,0.00788159253072322,-0.0019053443849402357,-0.8830039959637935,0.4655039994355876,0.045184725738433476,-0.09436500009643013,1.074724937059793,-0.0392266,-0.0025993530120470053,9.702557727108434,1.0
223,94.788,0.4909090909090909,0.005123591195691625,-0.005828756925645241,-0.8618330836457804,0.5058904718917892,0.03428188835876189,-0.09959812793135604,1.0690144772529624,-0.0392266,0.0007453054000008416,9.676182328400001,1.0
224,94.938,0.5652173913043478,-0.0012460237451731894,-0.011382903734815963,-0.8175326431987009,0.5723500438916165,0.012616531328764256,-0.10401268187165238,1.0309500689506539,-0.0392266,0.006629295400001062,9.652646368400001,1.0
225,95.006,0.515625,-0.004133582518365037,-0.013900783621639847,-0.7974497768626928,0.6024783831982028,0.0027949028084993457,-0.10601394632458659,1.0136942038536085,-0.0392266,0.009296704200000975,9.641976733200002,1.0
226,95.155,0.5487804878048781,-0.012254738185247986,-0.017000979288835708,-0.7665889992599804,0.64060268794975,-0.023622732537042744,-0.10337009648960753,0.6639132154993308,-0.033870357429718945,0.015162892570282235,9.613155737148595,1.0
227,95.212,0.5055187637969095,-0.015427090944104415,-0.018098579787312625,-0.7552638511162594,0.654167210634743,-0.03390786747062929,-0.10210166018770392,0.5186964643288768,-0.031625461646586285,0.01740778835341489,9.601931258232932,1.0
228,95.346,0.5099337748344371,-0.02242255423375448,-0.020304931076525704,-0.7377750685883349,0.6742030017166595,-0.039503543850886995,-0.0976746776197328,0.30694650921476496,-0.026347987349397417,0.019613300000001176,9.587831737349397,1.0
229,95.419,0.5218340611353712,-0.026052681240058537,-0.02136062987918917,-0.7318205884967555,0.6804821645496788,-0.0352835658503824,-0.0946977754912702,0.2422939036265921,-0.02347294538152614,0.019613300000001173,9.584956695381527,1.0
230,95.521,0.5369565217391304,-0.031096264315396478,-0.022864129915309953,-0.7236725062532534,0.6890597245693355,-0.029445173323154238,-0.09078697311878213,0.15423237740993345,-0.0196133,0.019456393600000982,9.5809401436,1.0
231,95.628,0.6433408577878104,-0.035650769840586856,-0.025171599563969718,-0.7195423961036467,0.6930186966463594,-0.024811629772186098,-0.09307641965150841,0.12032361343502865,-0.0196133,0.015259147400001007,9.5767428974,1.0
232,95.708,0.6817155756207675,-0.03905600761643008,-0.026896810516238673,-0.7164544632815109,0.6959786757693679,-0.021347298145294083,-0.09478815537691121,0.09497126653790396,-0.0196133,0.012121019400001074,9.573604769400001,1.0
233,95.784,0.7046979865771812,-0.04230588627392741,-0.028675645605919113,-0.7137769473475323,0.6984952949686899,-0.018514397345483137,-0.09779676336050136,0.07454699988663095,-0.0196133,0.010473502200001568,9.5719572522,1.0
234,95.908,0.6651982378854625,-0.04769270738738354,-0.03237005793152745,-0.7108580932752376,0.7009288649637944,-0.016486951939761553,-0.11053377264738137,0.061950709238647886,-0.0196133,0.015337600600001382,9.576821350600001,1.0
235,95.988,0.6774941995359629,-0.05116807584767789,-0.034753549754500616,-0.7089749616156926,0.7024989101219262,-0.015178922645747602,-0.11875119799375572,0.053824070110916736,-0.0196133,0.018475728600001316,9.579959478600001,1.0
236,96.108,0.6403712296983759,-0.01064761428968259,-0.00693321863928395,-0.19867044020958868,0.1938605971853692,-0.01225924414272097,-0.11118286268578581,0.0526171223156983,-0.0196133,0.016072009722223213,9.591720920833334,1.0
237,96.257,0.6545454545454545,0.057761859458695504,0.04003345925363089,0.6357653954029605,-0.6398966631623698,-0.008255044530544962,-0.09391335007690248,0.05546442862777484,-0.0196133,0.01027363333333451,9.609116049999999,1.0
238,96.305,0.63718820861678,0.06438433918967547,0.04460967325391272,0.7024685503292489,-0.7073820054095596,-0.007995827808976176,-0.08925186014175403,0.04996807751059512,-0.018201142399999946,0.008394492400001126,9.624638576,1.0
239,96.429,0.6764044943820224,0.06821797799877216,0.04734340054036812,0.7007472541000532,-0.7085431500705597,-0.008213754892349236,-0.07798626482486756,0.030246344655752735,-0.013337044000000135,0.0035303940000013185,9.673279559999997,1.0
240,96.529,0.6659192825112108,0.07125378880312401,0.04958156467958449,0.6994703917503066,-0.7093677440516765,-0.007735641798862483,-0.0699686870451956,0.014975116869051218,-0.00980665,0.00038915277777862035,9.711307569444442,1.0
241,96.588,0.6502242152466368,0.07274844184210359,0.05108020738235008,0.6993079385456962,-0.7092605274516277,-0.003981554537036536,-0.07090716454244779,0.009328422491395334,-0.00980665,0.0026851541666674567,9.727379579166664,1.0
242,96.708,0.6384439359267735,0.07578841412477418,0.05412829423543287,0.6989775252481835,-0.7090424597905116,0.0036538771819321046,-0.07281593233346934,-0.002156379632651459,-0.00980665,0.007354987500001057,9.760068412499999,1.0
243,96.788,0.6361556064073226,0.0773747411466881,0.055897475257085716,0.6988445787231157,-0.708875464206093,0.008395317643880667,-0.06554849508404931,-0.008356573909521055,-0.009139797800000161,0.009139797800001358,9.783231719799998,1.0
244,96.908,0.6458797327394209,0.07730656401853661,0.057089960601446436,0.6991306054722436,-0.7085048049425686,0.01356829747557642,-0.007175269156694197,-0.009561325639486317,-0.004432605799999982,0.004432605800001185,9.8255964478,1.0
245,96.99,0.6549295774647887,0.07725997631429976,0.057904825586759495,0.6993260570841476,-0.7082515211124936,0.017103167027234776,0.03271310189366053,-0.010384572654962483,-0.0012160246000002314,0.0012160246000014387,9.854545678599997,1.0
246,97.155,0.647887323943662,0.07086443525165778,0.05462768353020178,0.7003809581014949,-0.7081054903198135,0.027671437799930594,0.09559606754779829,-0.01177179287374021,0.0,1.2107489387405991e-15,9.8865153576,1.0
247,97.205,0.638095238095238,0.06848461113304989,0.053289922048665436,0.7007470068976973,-0.7080867301893646,0.031116183191537687,0.11343308830261141,-0.012173282682895654,0.0,1.2117097133432276e-15,9.8943606776,1.0
248,97.299,0.6547619047619048,0.06345211902616854,0.05035005805893206,0.7014706257067491,-0.7080523271578865,0.03583097499776561,0.13978961187912342,-0.012973160755981481,0.0,1.2128428871797738e-15,9.903613744176706,1.0
249,97.409,0.6255813953488372,0.0560227022499183,0.04573784121066245,0.7024151894134308,-0.7080144570678354,0.03648990599146813,0.15083540401544995,-0.014033527461340723,0.0,1.2123123389554306e-15,9.899281489156625,1.0
250,97.513,0.6135265700483091,0.048998526388736266,0.04137719982684392,0.7033082314633846,-0.7079786526190599,0.03711289529460506,0.16127869839888592,-0.015036055982771275,0.0,1.2118107297251425e-15,9.895185538955822,1.0
251,97.628,0.589242053789731,0.04109619684214421,0.036125601218602345,0.7042409215925906,-0.7077745518326818,0.03353889918327318,0.16172483491897582,-0.014238967239856706,0.0,1.2097016944237338e-15,9.877963958799999,1.0
252,97.73,0.6185819070904646,0.0340794010564096,0.03144295697998195,0.7050650263706311,-0.707584066009545,0.0301238559931514,0.16148232281208036,-0.013422432094812349,0.0,1.2077417142343711e-15,9.861959505999998,1.0
253,97.828,0.610705596107056,0.02042164023492051,0.018553070955718124,0.37767450087239796,-0.3794270396285077,0.02594972188770737,0.15802584230899772,-0.013678108416497794,0.0,1.2064158452827437e-15,9.8511329644,1.0
254,97.927,0.625615763546798,0.0018060963769277114,-0.0003142038732329676,-0.18169889016917196,0.1805755514018882,0.021110838323831035,0.1522883182764047,-0.014661086555570487,0.0,1.2054646784261413e-15,9.843366097599999,1.0
255,97.988,0.6343283582089553,-0.009664087212338794,-0.011939494424403046,-0.5263633028310959,0.525627652945816,0.018129304006695574,0.14875307619571665,-0.015266759954392962,0.0,1.2048786059185378e-15,9.8385804524,1.0
256,98.1,0.6268656716417911,-0.011559180224330026,-0.01461675089453399,-0.7076326219265182,0.7062911007352336,0.013412357047200271,0.13905273497104662,-0.01570027675479652,0.0,1.2041868482046452e-15,9.832931822,1.0
257,98.196,0.6421568627450981,-0.006612717251377612,-0.010511242967462451,-0.708186731952206,0.7058741118647164,0.009628920987248345,0.12963778936862927,-0.015839220546185986,0.0,1.2037256763953834e-15,9.829166068400001,1.0
258,98.298,0.625615763546798,-0.0017084873253457797,-0.006390051876417093,-0.7087517911466458,0.7054149854033988,0.006490903440862852,0.1187076360708276,-0.015776202803657883,0.0,1.2032345966025238e-15,9.825156097580646,1.0
259,98.396,0.6305418719211823,0.0021111725199877947,-0.003042201319336783,-0.7092345556537147,0.70493304401237,0.005715237231925111,0.1058528381850447,-0.01518078193429016,0.0,1.2027600204379188e-15,9.821280889112904,1.0
260,98.508,0.6277372262773723,0.006476498057511722,0.0007839136030405747,-0.7097862865189365,0.7043822538511942,0.004828761564567724,0.09116164060129338,-0.014500300940727075,0.0,1.2022176476783704e-15,9.816852079435483,1.0
261,98.61,0.6846153846153846,0.009192715996008342,0.003489784838539503,-0.7102308738963229,0.7038865574685806,0.0012693353231076742,0.07710586008634661,-0.013068384690745666,0.0,1.202169221539125e-15,9.81645665,1.0
262,98.708,0.7256410256410256,0.011670898164696537,0.00600822913754032,-0.710651981699727,0.7034109179948215,-0.0024379158679108523,0.06353065887322823,-0.011607802258088079,0.0,1.202169221539125e-15,9.81645665,1.0
263,98.815,0.6982968369829684,0.013712214460389774,0.008243868339195366,-0.711092810214194,0.702913082132743,-0.004725326887026363,0.049982866662529,-0.011211366782870434,0.0,1.202169221539125e-15,9.81645665,1.0
264,98.898,0.6739130434782609,0.014708089339798868,0.009523445744846171,-0.7114180016670042,0.7025459093670713,-0.004943040324735771,0.040600526886495715,-0.011963491136642513,0.0,1.202169221539125e-15,9.81645665,1.0
265,99.068,0.6859903381642513,0.016207850340157703,0.011674093666593981,-0.7120763562911273,0.7018173574594532,-0.0050940566718401005,0.021676344527689472,-0.012704160870126805,0.0,1.202169221539125e-15,9.81645665,1.0
266,99.134,0.7034313725490197,0.016286973644987886,0.012070960235890294,-0.7123247780561127,0.7015563938339564,-0.004877906580943431,0.014601997555314652,-0.012246465428717542,0.0,1.202169221539125e-15,9.81645665,1.0
267,99.201,0.6911764705882353,0.016367295787770027,0.012473839935024373,-0.7125769637872342,0.701291476214134,-0.00465848148866957,0.007420463507601834,-0.011781835207893053,0.0,1.202169221539125e-15,9.81645665,1.0
268,99.289,0.6525821596244131,0.016321027763911665,0.012842814436219343,-0.7129040687967738,0.7009537363366366,-0.0045468310825527046,-0.0014527933134235972,-0.0110121969766914,0.0,1.202169221539125e-15,9.81645665,1.0
269,99.402,0.6525821596244131,0.015553889542463279,0.012569643135668175,-0.7133048699606929,0.7005676672629708,-0.005226762127131254,-0.010239129858557525,-0.009280689343810003,0.0,1.202169221539125e-15,9.81645665,1.0
270,99.5,0.7061611374407583,0.014888583828286806,0.012332733512181322,-0.7136524674302864,0.7002328462964288,-0.005816436838358665,-0.017859138543717873,-0.007779027856886323,0.0,1.202169221539125e-15,9.81645665,1.0
271,99.626,0.7197149643705463,0.0134964428348643,0.011473014010976838,-0.7140982567445434,0.6998189079387691,-0.005727547880262119,-0.02524499970674563,-0.0075940537676215236,0.0,1.2016600109997318e-15,9.812298630399999,1.0
272,99.748,0.7339667458432304,0.012050438620889722,0.010539172378796225,-0.7145296890910439,0.6994211332135267,-0.005486735146492703,-0.03195587137341547,-0.007733878932893282,0.0,1.2010739384921284e-15,9.807512985199999,1.0
273,99.819,0.708433734939759,0.011086777206183,0.009781243698660505,-0.7147666435598858,0.6992041153346338,-0.004219646139378218,-0.03445414605131202,-0.00812949230189465,0.0,1.2009682532858392e-15,9.80665,1.0
274,99.907,0.7397590361445783,0.009824414410927707,0.008722494131909944,-0.7150524732946906,0.6989431899281892,-0.002022045917263627,-0.036767499914682186,-0.008794698660146883,0.0,1.2009682532858392e-15,9.80665,1.0
275,99.988,0.7009345794392523,0.008662466838022142,0.007747963280696256,-0.7153155665733176,0.6987030199518026,7.451962738842105e-07,-0.03889683699346632,-0.009406990876265484,0.0,1.2009682532858392e-15,9.80665,1.0
276,100.092,0.6774941995359629,0.006375859772722834,0.005477779863443568,-0.7156498925263672,0.6983961617133224,0.0025533545487559832,-0.06210845994949277,-0.009381310693919658,0.0,1.2009682532858392e-15,9.80665,1.0
277,100.189,0.7046004842615012,0.003898642326855068,0.002918684427064,-0.7159602102847094,0.6981106111855316,0.004914839043281782,-0.09263492727279415,-0.009005425356328508,0.0,1.2009682532858392e-15,9.80665,1.0
278,100.295,0.6741293532338308,0.0004787424939362223,-0.0006908764718562955,-0.716275775147256,0.6977906676751086,0.007359356274345965,-0.1243032110164841,-0.008592260656395977,0.0,1.2010830869036833e-15,9.807587687649402,1.0
279,100.428,0.6194029850746269,-0.0068681622654481285,-0.008705245169368962,-0.7165707823720135,0.6973553682026513,0.009843190853665666,-0.15679070068545392,-0.008063552622865166,0.0,1.2017194565359024e-15,9.81278404003984,1.0
280,100.508,0.6313253012048192,-0.011287353098160573,-0.013525918070128517,-0.7167482303267548,0.697093533933504,0.011337226690850466,-0.1763320478547593,-0.007745532753072192,0.0,1.2021022352620493e-15,9.815909665537847,1.0
281,100.588,0.6175,-0.015189179990827084,-0.01775869623182317,-0.716834033351301,0.6968096831320827,0.010066361312406851,-0.15898664205907667,-0.006963442674422934,0.0,1.2028058794083366e-15,9.821655356024095,1.0
282,100.708,0.6225,-0.02087730453072152,-0.023920806057390144,-0.7169335781376035,0.6963769016696816,0.007280321948858712,-0.12123183924031658,-0.00564264885363093,0.0,1.2039634391705399e-15,9.831107548795181,1.0
283,100.791,0.6049382716049383,-0.02434540969928368,-0.027687514655077277,-0.7170028208250219,0.6960902913776137,0.005746800210326924,-0.09790926903486322,-0.004996409062296131,0.0,1.2046672355059594e-15,9.836854482,1.0
284,100.868,0.652605459057072,-0.026200492871986707,-0.02973417827124584,-0.7170682002722687,0.6958616012840306,0.005474023580551168,-0.08442926894128425,-0.005178040375933027,0.0,1.2050371337279715e-15,9.8398749302,1.0
285,101.023,0.6401985111662531,-0.02991785430474806,-0.03384100647897625,-0.7171999945888581,0.6954017193660805,0.004946602988988127,-0.05756622254848499,-0.005516076713800477,0.0,1.205791341791035e-15,9.8460335064,1.0
286,101.141,0.6470588235294118,-0.031763791824799124,-0.03620578679800129,-0.7173111804326168,0.6950788871781174,0.0058074197359383435,-0.05295766517519933,-0.00416689768433565,0.0,1.206925055822137e-15,9.855290984,1.0
287,101.228,0.6766917293233082,-0.03312477965737887,-0.03794931127050245,-0.717393156436066,0.6948408668361445,0.006442089710384561,-0.04955983050167585,-0.00317216399312026,0.0,1.2077609297264238e-15,9.862116412399999,1.0
288,101.306,0.6511627906976745,-0.034268636251690514,-0.039390394880668936,-0.7174682617034805,0.6946293228473225,0.00633643457155319,-0.046352662296304956,-0.0030186777791728924,0.0,1.208343554292913e-15,9.866873903024194,1.0
289,101.388,0.7183462532299741,-0.03537255409935633,-0.040747709555508924,-0.7175492973650811,0.6944093244596509,0.005353974771776,-0.04277329516386784,-0.003810947186373671,0.0,1.2087406486347254e-15,9.870116424395162,1.0
290,101.548,0.7017543859649122,-0.03728843171064884,-0.043122668513967725,-0.7177168097094552,0.693997151196909,0.003233819223654716,-0.032268308212543215,-0.005323132887794295,0.0,1.2095137883470683e-15,9.876429589243028,1.0
291,101.655,0.6842105263157895,-0.03785037186655734,-0.043884825832843886,-0.7178572119133588,0.6937731432880339,0.001202235638397727,-0.014606926204317465,-0.006232584975066181,0.0,1.2100257548932898e-15,9.880610113346613,1.0
292,101.73,0.725,-0.0382442551534091,-0.044419048252616916,-0.7179556246731044,0.6936161283986354,-0.0002217715475301323,-0.0022274528340652244,-0.006870051391378278,0.0,1.2103846099490525e-15,9.883540387250996,1.0
293,101.853,0.6735218508997429,-0.03776541926376951,-0.04395942817293167,-0.718199148959729,0.6934184367436003,-0.0002984890731842839,0.011842120396312904,-0.00650415556608807,0.0032299680555553717,1.2109715563161842e-15,9.888333168055555,1.0
294,101.934,0.7223650385604113,-0.03709311245590441,-0.04323283016101964,-0.7183855831283505,0.6933072321552168,0.00036781202144325616,0.019129375601926065,-0.00581528675845932,0.006382105555555372,1.2113575818261689e-15,9.891485305555555,1.0
295,102.014,0.6361386138613861,-0.036429105732087075,-0.04251520249493374,-0.7185697156405694,0.6931974004629863,0.001025887176630911,0.026326664693889258,-0.005134922504011211,0.00949532777777741,1.2117388415891168e-15,9.894598527777777,1.0
296,102.085,0.6287128712871287,-0.03632975202389736,-0.041910249084490744,-0.7206711983918447,0.6910350101434646,-0.012372321443607535,0.018217333401723122,-0.09415203621272875,0.007325449397590779,1.2117769675654117e-15,9.89490985,1.0
297,102.202,0.708433734939759,-0.03626855352882555,-0.04092003788879823,-0.7245397560348018,0.6870395397214805,-0.03737692283859101,0.0018205073134732012,-0.2595958864619249,0.0027175054216869027,1.2117769675654117e-15,9.89490985,1.0
298,102.334,0.5351089588377724,-0.03676535568217713,-0.04017563734622154,-0.7423229197289586,0.6665596316531197,-0.04507272909581635,-0.007155844641849433,-0.49571934723854594,0.0024712758000000937,1.2120796115652397e-15,9.897381125799999,1.0
299,102.428,0.46731234866828086,-0.03756046672838468,-0.0399362658427625,-0.7654524502453197,0.6395180622895567,-0.034552939727902805,-0.006120992491021877,-0.7024507281780166,0.006158576199999862,1.2125311756284752e-15,9.901068426199998,1.0
300,102.48,0.4344660194174757,-0.038000315392244265,-0.03980384756425322,-0.7782475096799049,0.6245588962586466,-0.0287334817796942,-0.005548521088436311,-0.8168127686977457,0.008198359400000126,1.2127809770251588e-15,9.9031082094,1.0
301,102.597,0.39285714285714285,-0.03630128733674284,-0.04112119845223949,-0.8088935324054419,0.5827725904829657,-0.008358643779837048,0.001213402381589024,-0.9369362058392527,0.00980665,-0.002969344223106042,9.907685844223106,1.0
302,102.726,0.43870967741935485,-0.03282875702817549,-0.0435344449177376,-0.8437873712448681,0.5318658318782528,0.01843672570776063,0.011924733704630722,-0.9877781046339218,0.00980665,-0.008009415338643985,9.912725915338646,1.0
303,102.828,0.46808510638297873,-0.029277344486390924,-0.04568209944915922,-0.8695413424437409,0.4878701791111576,0.028037676954245472,0.017295764430040647,-1.0167756051902308,0.012012161646586285,-0.007601138353412501,9.91452315,1.0
304,102.964,0.47619047619047616,-0.023659704394659274,-0.04880795509853678,-0.9018685593503794,0.42510895952162175,0.028149423514863093,0.02106365954211656,-1.0431689095784376,0.01736840421686734,-0.0022448957831314445,9.91452315,1.0
305,103.021,0.1111111111111111,-0.021305252297389225,-0.05011805636334953,-0.9154174664362508,0.3988046248407115,0.02819625847041607,0.022642850875854364,-1.054230809211731,0.0196133,1.2141789040719834e-15,9.91452315,1.0
306,103.108,0.2962962962962963,-0.01776373743177602,-0.051354334148044384,-0.9309366977410546,0.35551502920770045,0.024261073190793025,0.021070229921089065,-1.0605663778297456,0.0196133,1.2141789040719834e-15,9.91452315,1.0
307,103.224,0.4915254237288136,-0.013041717610958601,-0.053002704527637445,-0.9516290061474588,0.2977955683636881,0.01901415948462918,0.01897340198140209,-1.0690138026537648,0.0196133,1.2141789040719834e-15,9.91452315,1.0
308,103.308,0.7446808510638298,-0.009725492564979121,-0.05382554080689954,-0.9642430677501823,0.25494297539698163,0.013391079254448282,0.017800648033618784,-1.0740627727508545,0.0196133,1.2143518435004564e-15,9.915935307600002,1.0
309,103.398,0.7876106194690266,-0.006319778040531934,-0.05417742076754458,-0.9743723854745013,0.20752128006023812,0.004761220443994711,0.017037895515561053,-1.0779464826583858,0.0196133,1.2147841920716393e-15,9.9194657016,1.0
310,103.511,0.7863247863247863,-0.0020437142487255283,-0.05461922560702118,-0.9870903066172589,0.1479807070263199,-0.006074046729131585,0.016080217353999567,-1.0828226962089533,0.0196133,1.2153270297221244e-15,9.9238983074,1.0
311,103.604,0.6496350364963503,0.0011689265337335468,-0.053274087820467705,-0.9917230615414009,0.09789627116008062,-0.019190008327363985,0.013909726798534423,-1.083178544998169,0.0196133,0.006433162400000716,9.9211132188,1.0
312,103.718,0.47706422018348627,0.00505658621047776,-0.051344227229588354,-0.9964425603348144,0.03632452237480545,-0.03595801958069175,0.011021821454167285,-1.0830133466720582,0.0196133,0.015376827200001055,9.9166413864,1.0
313,103.817,0.19540229885057472,0.008097813181896259,-0.049079082954537806,-0.997255990459991,-0.017134190805415866,-0.044573771581053544,0.00612532578408803,-1.082695562839508,0.0196133,0.021378497000000725,9.910992756000002,1.0
314,103.915,0.2972972972972973,0.010710501820368505,-0.046136905645778076,-0.9941589249129583,-0.07003926859837263,-0.04603943742811681,-0.0015590513199569642,-1.0821739153862,0.0196133,0.025222703800001238,9.9033043424,1.0
315,103.988,0.25675675675675674,0.012656688255148409,-0.04394528377292694,-0.9918519271075161,-0.10944815307679069,-0.0471312089264392,-0.007283128142356533,-1.0817853412628173,0.0196133,0.028086245600000975,9.8975772588,1.0
316,104.117,0.2727272727272727,0.015075831329912819,-0.039806361001783384,-0.9808401817239742,-0.17842448149636211,-0.04436654591512287,-0.016831512788250874,-1.081097755701311,0.015856720362903125,0.02941995000000121,9.887396690725806,1.0
317,104.244,0.30303030303030304,0.017098072486474984,-0.035637863559202655,-0.9675556431620547,-0.24609744149635926,-0.03999084871142132,-0.026032163160703205,-1.0804205036932422,0.010834766532257956,0.02941995000000121,9.877352783064516,1.0
318,104.308,0.38823529411764707,0.017688755442556575,-0.03361071501833483,-0.9583161687002831,-0.2791002295800932,-0.0367163583636277,-0.030079281717539586,-1.0789855985641477,0.008316039199999571,0.02941995000000121,9.8723153284,1.0
319,104.363,0.4936708860759494,0.017944477695839997,-0.031911858570952224,-0.9488796086149304,-0.3068151367423061,-0.03327353447675683,-0.03321069346368346,-1.0771094398498533,0.006158576199999862,0.02941995000000121,9.8680004024,1.0
320,104.545,0.4805194805194805,0.018597086134269636,-0.026395335403662065,-0.9159980170986581,-0.39786202123626857,-0.021922925817390283,-0.04220200282525271,-1.0719485244902958,0.0,0.030396707968128902,9.854706492031873,1.0
321,104.628,0.5079365079365079,0.018340243108011245,-0.024180695481601257,-0.8962622710626363,-0.43748098304287797,-0.016866860028163247,-0.04237647611365864,-1.072594812191815,0.0,0.03363954442231204,9.851463655577689,1.0
322,104.708,0.3333333333333333,0.018092683564629668,-0.022046102785639034,-0.877239865244784,-0.4756679341817785,-0.011993543604811896,-0.04254464313862821,-1.0732177400968939,0.0,0.03676516992031988,9.848338030079681,1.0
323,104.822,0.46153846153846156,0.01757637881012876,-0.019301178432331634,-0.8469291660689098,-0.5283287960865897,-0.00624243237347477,-0.04114897445921443,-1.0680033399398066,-0.0020085909638555364,0.037218009036145666,9.84185941807229,1.0
324,104.908,0.5538461538461539,0.01703449177460801,-0.017507095999971214,-0.8210776426353609,-0.5664194403597557,-0.0030159576455631217,-0.038572178024005734,-1.0583832182558661,-0.0053956267068274305,0.03383097329317377,9.835085346586347,1.0
325,105.007,0.6,0.016410691582555016,-0.015441815060393407,-0.7913183307758088,-0.6102679727207282,0.0006982400063353777,-0.03560586584859091,-1.0473088921313296,-0.009294656224899943,0.029931943775101257,9.8272872875502,1.0
326,105.108,0.4027777777777778,0.015415253779585336,-0.013767798824939654,-0.7689300441590731,-0.6378038931862974,0.003827767210110928,-0.03511554115111875,-0.8177094837975758,-0.016655738888889257,0.0294199500000012,9.822838755555555,1.0
327,105.188,0.5079365079365079,0.014584776828278587,-0.012492509981088286,-0.7521295912584051,-0.6576021044388122,0.006229407464464506,-0.035023896644512886,-0.6103047529856364,-0.022882183333333334,0.0294199500000012,9.819725533333333,1.0
328,105.347,0.5714285714285714,0.012682226253582184,-0.010746762885878954,-0.7282279154071724,-0.684989558640613,0.011150888645969265,-0.030147734903304337,-0.32209017706583076,-0.032350223904382136,0.0294199500000012,9.81645665,1.0
329,105.402,0.5161290322580645,0.01192648975131085,-0.010448520759157637,-0.723636368516449,-0.6898290690574974,0.012910711849887544,-0.026642449229836954,-0.27043446411649513,-0.03449909143426296,0.0294199500000012,9.81645665,1.0
330,105.508,0.5806451612903226,0.01046997940147908,-0.00987372684220393,-0.7147872054179654,-0.6991561254973094,0.016302371115620357,-0.019886807750064635,-0.1708798173414294,-0.03864054521912346,0.0294199500000012,9.81645665,1.0
331,105.608,0.6164383561643836,0.009509609725915335,-0.009829463567830692,-0.7105726783260005,-0.7034656539411673,0.014134942572563638,-0.015003450606017953,-0.12592855334281633,-0.03589233899999969,0.02608568900000089,9.813122388999998,1.0
332,105.704,0.6216216216216216,0.008657739924053274,-0.009871337059550034,-0.7072270365029137,-0.7068422133386546,0.011144960086792789,-0.010567832563072574,-0.09107113146782016,-0.0321265854000001,0.022319935400001302,9.8093566354,1.0
333,105.788,0.6197183098591549,0.007950853977749497,-0.00991786915043773,-0.7046058474384008,-0.7094839095432306,0.009039952941238882,-0.007448800764977942,-0.0635872394591569,-0.02941995,0.020790098000001245,9.806061601,1.0
334,105.908,0.6901408450704225,0.007194017768026858,-0.010049353300153037,-0.7028737754050497,-0.7112022626442844,0.009392295069992557,-0.008001350127160578,-0.044146279171108374,-0.02941995,0.0302044820000016,9.801354409,1.0
335,105.988,0.6619718309859155,0.006689460294878461,-0.010137009399963237,-0.701719060716149,-0.7123478313783204,0.009627189822494994,-0.008369716368615648,-0.031185638979076787,-0.02941995,0.03648073800000147,9.798216281,1.0
336,106.121,0.6901408450704225,0.006095718947543262,-0.01017466329908298,-0.7007014586271073,-0.7133552857716056,0.008757675152271997,-0.0074022856764495515,-0.017498523101210677,-0.03326415679999996,0.02769397960000132,9.79684335,1.0
337,106.2,0.6835443037974683,0.005795037327402509,-0.010174102524396959,-0.7002883898658913,-0.713763399829763,0.007973897511139446,-0.006492503197863622,-0.011035971798002172,-0.03636305820000026,0.018397275400000412,9.79684335,1.0
338,106.297,0.6944444444444444,0.005463475870903736,-0.01015168202361687,-0.6998885294489021,-0.7141590171487293,0.006703057880735113,-0.0054885013516814945,-0.00460796150201488,-0.0420285,0.008872683333334535,9.798711283333333,1.0
339,106.397,0.7083333333333334,0.005239657474641479,-0.010060422371214576,-0.6998128462541039,-0.7142360974205042,0.004425602026342765,-0.004808014805709527,-0.002706771193530379,-0.05370308333333389,0.004981155555556572,9.80649433888889,1.0
340,106.502,0.6617647058823529,0.00500464815856615,-0.009964599736192185,-0.6997333788995658,-0.7143170317058678,0.0020342733792312355,-0.004093503932439092,-0.0007105213696220174,-0.06596139583333223,0.0008950513888904589,9.81466654722222,1.0
341,106.596,0.6615384615384615,0.004789099990719221,-0.009843888941510831,-0.6998139600121074,-0.7142411680040547,0.0013359265576582385,-0.005085366646639052,0.0014900362232677634,-0.06022390302419347,0.005615097983872223,9.81645665,1.0
342,106.708,0.6615384615384615,0.004530285442675024,-0.00968658245758932,-0.699968533022004,-0.7140935296603363,0.0010606085124891258,-0.006896887173605778,0.004271554364916684,-0.04693747399193551,0.014472717338710857,9.81645665,1.0
343,106.842,0.6153846153846154,0.003817419017728455,-0.009114855634547019,-0.7002443330921736,-0.713833738003617,0.0012985913183139453,-0.015060409339538268,0.0064725978299975525,-0.03653074800796808,0.0196133000000012,9.813760798007968,1.0
344,106.908,0.8076923076923077,0.0032792210102109316,-0.008655311139217645,-0.7004223346328358,-0.7136671992572508,0.0016790627616929013,-0.021863376833053484,0.0070338556542992835,-0.03395210697211146,0.0196133000000012,9.81118215697211,1.0
345,107.032,0.8076923076923077,0.0022124990352881476,-0.007733774821884364,-0.7007606958587701,-0.7133504563842221,0.002225343755121038,-0.03418762263763362,0.008004113511896768,-0.02973502309236931,0.0196133000000012,9.80665,1.0
346,107.142,0.7758620689655172,0.0005515237284385685,-0.006168309095676982,-0.701111458816035,-0.7130199282505953,0.0005419808664325909,-0.03924095469066883,0.007781428299904119,-0.034067278112449695,0.0196133000000012,9.80665,1.0
347,107.237,0.7777777777777778,-0.0008829549456587853,-0.004816315968497889,-0.7014143904609454,-0.7127344721351905,-0.0009118325374346944,-0.04360519600919921,0.007589109253183196,-0.037808771084337264,0.0196133000000012,9.80665,1.0
348,107.308,0.7777777777777778,-0.002062794845128206,-0.0037252996137316285,-0.7016474641264017,-0.7125082523888647,-0.0011936808633804341,-0.046161616303356065,0.007979598633167146,-0.03784815522088316,0.0196133000000012,9.803893110441766,1.0
349,107.397,0.74,-0.003680682567896342,-0.002253793658824825,-0.7019482294951651,-0.7122080759794132,-0.0005094731791341036,-0.04845680559734755,0.009157877710898547,-0.0343429670682729,0.0196133000000012,9.796882734136545,1.0
350,107.481,0.66,-0.0052076777219694625,-0.0008649565777893516,-0.702232097933099,-0.7119247634131892,0.000136295871165729,-0.05062305167257522,0.010269961334824683,-0.031034699598393948,0.019613300000001197,9.790266199196788,1.0
351,107.594,0.6666666666666666,-0.007308435999306887,0.0010911362532981257,-0.7025994005560752,-0.7115410521258226,0.000945635804070472,-0.05217136065643947,0.010462083270302076,-0.0322556078313249,0.0224489578313261,9.78136538433735,1.0
352,107.693,0.6666666666666666,-0.00917216491861161,0.002848672343146062,-0.7029139287675658,-0.711203588938085,0.0016250826140685845,-0.052846450717693325,0.00997989718993029,-0.03615463734939742,0.02634798734939861,9.773567325301205,1.0
353,107.81,0.7906976744186046,-0.011418967926225576,0.004968815956221515,-0.7032786411750606,-0.7108007394397226,0.0026903420854360064,-0.05393461444973948,0.009780265435576453,-0.03769676259999994,0.027890112600001137,9.7658935626,1.0
354,107.899,0.6744186046511628,-0.013195340664446992,0.0066470780228061015,-0.7035454182220094,-0.7104881682196253,0.0038996871896088137,-0.05520406159758568,0.010191656365990646,-0.034205595199999994,0.02439894520000119,9.7624023952,1.0
355,108.028,0.7368421052631579,-0.01577399694781489,0.009091048162031965,-0.7039293914156034,-0.7100355424826469,0.0055769752814538096,-0.057023518511818576,0.01069266046397384,-0.02941995,0.019613300000001194,9.757889156944445,1.0
356,108.097,0.45714285714285713,-0.01718976344189736,0.010504869267129876,-0.7041095683026726,-0.7097974202996528,0.005769525979837714,-0.057805346472868786,0.01007239932992634,-0.02941995,0.019613300000001194,9.760574311111112,1.0
357,108.188,0.7333333333333333,-0.019056933745687763,0.012369473912984125,-0.7043471928928653,-0.7094833751017909,0.006023469654518001,-0.058836452914254114,0.009254373776327252,-0.02941995,0.019613300000001197,9.76411560138889,1.0
358,108.325,0.7,-0.02190083701173866,0.015238678054122826,-0.7046738273421096,-0.709022804982818,0.0053824609518050015,-0.060195039808750204,0.007775666564702903,-0.027380166799999738,0.017573516800000934,9.7633438336,1.0
359,108.388,0.65,-0.023233339219573247,0.016604736689498932,-0.7048006480557687,-0.7088201979546013,0.0043184771668164385,-0.06067416146397597,0.006909880088642122,-0.02490889099999964,0.015102241000000838,9.758401282,1.0
360,108.519,0.6470588235294118,-0.026004097778721248,0.019445271312265013,-0.7050643546190918,-0.7083989039752935,0.0021060664393006178,-0.061670430302620004,0.005109593924134849,-0.019770206399999636,0.009963556400000828,9.7481239128,1.0
361,108.601,0.5882352941176471,-0.027787339253713503,0.02126773946143882,-0.7052087311757328,-0.7081263988204937,0.0009083433104678561,-0.062335575282573726,0.005208702694624676,-0.022672974800000117,0.009806650000001194,9.7508697748,1.0
362,108.731,0.8571428571428571,-0.030618402854062136,0.02416062990737665,-0.7054359385887949,-0.7076936634596599,-0.000975271027535177,-0.0633934495449066,0.00546550159528852,-0.027772432799999937,0.009806650000001195,9.7559692328,1.0
363,108.823,0.42857142857142855,-0.032694512353296096,0.026284073309570513,-0.7055651049518368,-0.7073944303004563,-0.0013689079713373352,-0.06466950336656715,0.005139338036264477,-0.027466434063745167,0.009806650000001195,9.759570265936254,1.0
364,108.926,1.0,-0.03508711620862469,0.02873303686130129,-0.7056799723875636,-0.7070660120187996,-0.000926182286923301,-0.06659411823013395,0.004296531559402234,-0.02344219123505965,0.009806650000001195,9.76359450876494,1.0
365,108.988,0.0,-0.03652732435455046,0.03020717026137206,-0.7057491158925643,-0.7068683233444044,-0.0006596872147517789,-0.06775262426451381,0.0037892111558541497,-0.021019831474103613,0.009806650000001195,9.766016868525897,1.0
366,109.108,1.0,-0.03953152017139173,0.03327547140270495,-0.7058321292703218,-0.7064785159897349,-6.428583106024381e-05,-0.07151749628782283,0.0031292604655027336,-0.022908334400000126,0.0065116156000010715,9.7707184344,1.0
367,109.216,0.6666666666666666,-0.042318879218666575,0.03611992489404279,-0.7058872421025073,-0.7061249183551692,0.000502279995474928,-0.07549317055940602,0.002659489326179067,-0.02714480719999973,0.0022751428000014687,9.7749549072,1.0
368,109.708,1.0,-0.05100024372614467,0.04504253320551953,-0.7059905238751795,-0.7049427282986217,-0.0023630287145690607,-0.030967735478028773,-0.0008883476408145319,-0.012546159514170145,1.2039001717341441e-15,9.83059093097166,1.0
369,109.788,0.5,-0.051844109223749255,0.04595907094608642,-0.7060143487001235,-0.7048002117698813,-0.0020465049477230613,-0.026120963881933978,-0.0015937080860303793,-0.010241622379032079,1.2046244267988666e-15,9.836504922379033,1.0
370,110.308,1.0,-0.05493722520903827,0.050144057142629615,-0.7062236152448564,-0.7040704678848795,-0.00153997848270412,-0.016321259393026255,0.003717097840572326,-0.00980665,1.2086680094258573e-15,9.869523280241935,1.0
371,110.428,0.6363636363636364,-0.0555084586933705,0.050869404107093084,-0.7063264557210696,-0.7038701192475081,-0.0006704893335888274,-0.015924998611632397,0.00388014365753699,-0.00980665,1.2104113504386913e-15,9.883758739919354,1.0
372,110.508,1.0,-0.055889281016258674,0.051352968750068756,-0.706395016038545,-0.7037365534892605,-9.082990084526487e-05,-0.01566082475736981,0.003988840868846772,-0.00980665,1.2115735777805809e-15,9.893249046370967,1.0
373,110.596,0.8,-0.0563531451809177,0.051933580991078795,-0.706497910737615,-0.7035530451329873,-0.000548405280336723,-0.015156808204948915,0.004166652411222455,-0.00980665,1.2121324541683842e-15,9.8978126184,1.0
374,110.786,1.0,-0.057118674510528114,0.052956708511097336,-0.7067528691118231,-0.7031588974284979,-0.001844864377441515,-0.009089208570206907,0.004584110186745713,-0.009261836111111265,1.2131113767357293e-15,9.905806127777776,1.0
375,111.388,1.0,-0.03844743076492461,0.035781897796259746,-0.7089615989005057,-0.7032400268101296,-0.001487915117293586,0.12982908153533945,0.004830948114395044,0.0,1.2125359795014883e-15,9.9011076528,1.0
376,111.488,1.0,-0.03361223574250203,0.03124817575257458,-0.7093539439375812,-0.703332623717719,-0.0012465072721242938,0.13182879352569576,0.0029371371865272626,0.0,1.2110948175975455e-15,9.8893396728,1.0
377,111.714,1.0,-0.02300040421229458,0.021435322083850853,-0.7101157445311634,-0.7033498633615505,-0.0012228508014231912,0.12376626610755931,0.0059655850380658515,0.0,1.2078377916946343e-15,9.862744038,1.0
378,112.108,1.0,-0.007339590982853542,0.006288564931439183,-0.7110230516310979,-0.7030815868774357,-0.0006979377439386375,0.09665749783059974,0.001468433252724975,0.0,1.203767322720788e-15,9.829506136454183,1.0
379,112.192,0.75,-0.004633560703551596,0.0035901442362791178,-0.7111562373781352,-0.7029890003339848,0.0003777524526878905,0.0881580077556986,0.0011232852920949569,0.0,1.20296348739588e-15,9.822942322908368,1.0
380,112.288,0.0,-0.001663256616240407,0.0006203054194812066,-0.7113055674752924,-0.7028783278114626,0.0013602111518849244,0.0783758148103962,0.0007996378014795266,0.0,1.2021067711899542e-15,9.8159467042,1.0
381,112.388,1.0,0.0006174238006125513,-0.0017146344076887196,-0.7114419512808887,-0.7027307262743347,0.0007415522153023658,0.06773052807152276,0.0009334190762601704,0.0,1.2016263838886398e-15,9.8120240442,1.0
382,112.473,0.0,0.002556002154937258,-0.0036993332607828415,-0.7115578775156456,-0.7026052649677761,0.00021569211920727466,0.05868203434348178,0.0010471331598236994,0.0,1.2012180546825227e-15,9.8086897832,1.0
383,112.588,1.0,0.004684111497969929,-0.004332430697002808,-0.7117092549371525,-0.7024425581011886,-0.017498417646853715,0.03038851359487007,0.000582222040277071,0.0,1.2012708972856672e-15,9.809121275799999,1.0
384,112.698,0.0,0.00632914495653529,-0.003317861806051363,-0.711849736884544,-0.7022924795710156,-0.047866112616608225,-0.009347627371545132,-0.00035099243698631026,0.0,1.2017993233171128e-15,9.813436201799998,1.0
385,112.816,0.0,0.007711682427085582,-7.387516706492325e-05,-0.7119749950079892,-0.7021389581123683,-0.07559968182444522,-0.04809093187749301,-0.0011262026438489403,0.0,1.2027600979197415e-15,9.8212815218,1.0
386,113.019,1.0,0.008855483696830386,0.012471467474644114,-0.7121082856015273,-0.7018989898936414,-0.10766468411684033,-0.10219788756966584,-0.0017300537358969318,0.0,1.205685656584746e-15,9.8451705212,1.0
387,113.1,0.0,0.008738649780880653,0.01780288338022912,-0.7120488356971212,-0.7018079066934638,-0.0952221826598885,-0.095961634451011,-0.001876921948470794,0.0,1.206835976129649e-15,9.854563593110235,1.0
388,113.188,0.0,0.008561897850177733,0.023623341365291164,-0.7119744586510981,-0.7017093577891298,-0.07951097298912128,-0.08676801222985157,-0.002028305881004041,0.0,1.2080842265976314e-15,9.864756331692913,1.0
389,113.317,0.6666666666666666,0.008170207360947694,0.030975725640796453,-0.7118727646072627,-0.7015703698883392,-0.05748348289302478,-0.07223304969315679,-0.0017115343333583507,0.0,1.2097475763129206e-15,9.878338612857142,1.0
390,113.401,0.6,0.0077083998435745725,0.033923465989698684,-0.7118179846335091,-0.701488404954752,-0.04470515751412973,-0.061118697177390977,-0.000665256205223979,0.0,1.210571097400888e-15,9.885063172857143,1.0
391,113.543,1.0,0.0068908318638524115,0.038663410547434086,-0.7117293402336664,-0.7013533957228366,-0.02528189198977954,-0.044594361794641144,0.0006136616895789958,0.0,1.2118686077132527e-15,9.895658148594377,1.0
392,113.6,0.8333333333333334,0.0064667823760037844,0.03993424197367626,-0.7117040476331272,-0.7013084282710633,-0.023145453331161886,-0.04384511848350612,-0.0001457349746019765,0.0,1.212143528156776e-15,9.89790304437751,1.0
393,113.708,1.0,0.005663320188500921,0.04234213309708308,-0.7116561248110532,-0.7012232267834927,-0.019097464293780057,-0.04242549957819731,-0.001584591811997862,0.0,1.2126644300497675e-15,9.902156531124497,1.0
394,113.83,1.0,0.0046534388030764935,0.044873192124591996,-0.7116048129377015,-0.7011265019767916,-0.015217802099262675,-0.04126930046117022,-0.0024324828825358783,0.0,1.213249583399798e-15,9.906934670833333,1.0
395,113.906,0.8,0.003951683896432551,0.04631567918569739,-0.7115748536921811,-0.7010659071319567,-0.013293305437804805,-0.04086690199457935,-0.0024083661070714328,0.0,1.2136117801745985e-15,9.909892231944445,1.0
396,113.988,0.6,0.003194527286632641,0.04787204680425821,-0.7115425292430668,-0.7010005284835823,-0.011216874829390103,-0.04043273522799453,-0.002382345375649273,0.0,1.21400257143162e-15,9.913083284722223,1.0
397,114.085,0.8,0.0021936180927278723,0.049005456262524845,-0.7115473211465247,-0.700922305964488,-0.002472024800561412,-0.03398474331099299,-0.0020116896617163762,0.0,1.2141789040719834e-15,9.91452315,1.0
398,114.188,1.0,0.0010618792285463482,0.04974559026459483,-0.7115805855555044,-0.7008386658491801,0.010931578104892942,-0.023251993273685122,-0.0013955528421171436,0.0,1.2141789040719834e-15,9.91452315,1.0
399,114.286,0.75,-5.67615986257983e-07,0.050331315024952576,-0.711620208435478,-0.7007589906844888,0.022030027635604812,-0.01389653583891292,-0.0008340500852459462,0.0,1.214227135728742e-15,9.914916991365462,1.0
400,114.428,0.5,-0.0013570129570765438,0.04966927216585321,-0.7117792882295394,-0.7006423284729488,0.017014979994500665,-0.01125918052357492,-0.0003357067606954363,0.0,1.214912025254712e-15,9.92050953875502,1.0
401,114.509,1.0,-0.002130759947416829,0.049291627999747206,-0.7118700309289688,-0.7005757817184789,0.014154283804856558,-0.009754773618346804,-5.144049809970388e-05,0.0,1.2153027016744556e-15,9.92369965381526,1.0
402,114.628,1.0,-0.0033743160826299736,0.049477428284340444,-0.7159052560152301,-0.6963983672695468,0.024080034207552104,-0.022773279622196413,0.16516469518373758,0.0,1.2163694701659767e-15,9.9324104796,1.0
403,114.716,1.0,-0.004306190992062999,0.049699903103285425,-0.7193375128406015,-0.6928405448601386,0.03304307017847777,-0.03414977677166307,0.3062722546038961,0.0,1.21721495181629e-15,9.9393143612,1.0
404,114.804,1.0,-0.005128541061979286,0.04987471526568217,-0.7290157452337932,-0.6819430347960362,0.035900650120946724,-0.03870481899052531,0.4601639720892086,0.0,-0.0022570861111096516,9.947328729166667,1.0
405,114.943,0.0,-0.006075515953418928,0.04999767231124203,-0.7643747579331075,-0.6411434103741926,0.020794090504448134,-0.023978574201465066,0.744325568278621,0.0,-0.013075533333331744,9.9635564,1.0
406,115.001,0.8,-0.0064706565556024356,0.05004897812881378,-0.7791288783400179,-0.6241191066586007,0.014490633973821877,-0.017833810188762747,0.8628965940267388,0.0,-0.01758970555555459,9.970327658333334,1.0
407,115.094,0.7142857142857143,-0.0043616782767469785,0.05031003904168394,-0.8043238614622705,-0.5895698232835727,0.0015238260768033352,-0.004101614493982232,0.9423332908546088,0.0,-0.01961329999999878,9.978640524297187,1.0
408,115.19,0.5869565217391305,-0.0010860575871641798,0.05065114244935307,-0.830947479961776,-0.5510011800107802,-0.013006734620615155,0.011627550367789669,0.979994188350846,0.0,-0.019613299999998775,9.986202278514055,1.0
409,115.3,0.6288659793814433,0.0029736188912127927,0.05096277791797028,-0.8605191612545222,-0.5054019651910463,-0.02565366001427172,0.026186163336038733,1.0176915483474733,-0.0009414384000000357,-0.019613299999998775,9.99297635,1.0
410,115.383,0.5043478260869565,0.006865164766849282,0.05098374809592157,-0.8803055187593569,-0.46719381935664606,-0.024373954840004455,0.027804327115416638,1.0313847246170043,-0.004197246199999973,-0.019613299999998775,9.99297635,1.0
411,115.508,0.43703703703703706,0.012725926627747722,0.05101532968922172,-0.9101042499413375,-0.40965143105182533,-0.022446688011288653,0.030241320759058114,1.052006978034973,-0.009100571199999973,-0.019613299999998775,9.99297635,1.0
412,115.63,0.4563106796116505,0.01802622951598151,0.050187559889559,-0.9332190733688733,-0.3491480337458411,-0.016045741796493578,0.028107570469379575,1.0652650918960571,-0.013886216399999969,-0.019613299999998775,9.99297635,1.0
413,115.708,0.4533333333333333,0.021368494401179945,0.049563321727735525,-0.9473369279718717,-0.309985063703272,-0.011453176952898375,0.026244062438607295,1.0729814739227297,-0.016945891200000084,-0.019613299999998775,9.99297635,1.0
414,115.83,0.4266666666666667,0.02600175119033502,0.04776910518014045,-0.965765238901675,-0.2474981998301808,0.00034244683945929867,0.02021558277783883,1.0812166487553205,-0.02172309721115542,-0.019613299999998775,9.99719594442231,1.0
415,115.904,0.3838383838383838,0.02835808577834192,0.04605612999438006,-0.9741525053604924,-0.2086553429875222,0.011020166268831608,0.014180632115182496,1.0832832666982217,-0.024614300796812656,-0.019613299999998775,10.002978351593626,1.0
416,115.985,0.47474747474747475,0.03093731688143072,0.04418111661537195,-0.9833331618897391,-0.1661381618489337,0.022707940238820966,0.00757480774119338,1.0855453755276137,-0.027778996613545784,-0.019613299999998775,10.009307743227092,1.0
417,116.108,0.43137254901960786,0.03351109049682226,0.039961713529202914,-0.9915462254878574,-0.10055474829023474,0.0352668610811236,-0.0034522194862367274,1.0839210686683654,-0.03259730460000012,-0.013258590799998533,10.0062349408,1.0
418,116.2,0.4019607843137255,0.03491539045103078,0.036273565365562754,-0.9954678369958847,-0.05110478488223259,0.04264797973632827,-0.012086345613002817,1.0807439427375793,-0.03620615180000007,-0.006040896399998632,9.9990172464,1.0
419,116.308,0.41935483870967744,0.036132134734834696,0.031852608012706694,-0.9978317663489659,0.006988217873365328,0.04754487025411964,-0.02180315300761964,1.0777021714067652,-0.0392266,1.2233344636709195e-15,9.989283967611335,1.0
420,116.387,0.536,0.03623765396107468,0.02845270872759718,-0.9954916105757771,0.04956038358752328,0.04428093459623065,-0.02814970522183862,1.076727018182577,-0.0392266,1.222182117614123e-15,9.979874347975707,1.0
421,116.508,0.456,0.03639927201645492,0.023245268050403906,-0.9919073213535512,0.11476585259275528,0.039281742006299206,-0.037870373803111146,1.075233429067048,-0.0392266,1.2204171318815614e-15,9.965462145748988,1.0
422,116.593,0.376,0.035762924160100434,0.01999913741843466,-0.9844681892910391,0.15976853928040008,0.032907535895705005,-0.04182373082637784,1.0738512029647826,-0.0392266,0.0027066354000013213,9.9527298584,1.0
423,116.729,0.32727272727272727,0.03446655079650286,0.014958182242233171,-0.9707397255381195,0.23147498455245702,0.021646822914481303,-0.04708235681056956,1.071516089439392,-0.0392266,0.008041453000001149,9.931390588000001,1.0
424,116.799,0.4074074074074074,0.03363700697459757,0.012495055694823792,-0.9635316083372238,0.2637791790518272,0.017660529955127582,-0.04873348371909237,1.0076829573464616,-0.0392266,0.010779531944445898,9.920438272222222,1.0
425,116.914,0.05,0.03179426191048607,0.00883730388169591,-0.9512697986017434,0.30323704601864837,0.016463049894405703,-0.04832472941941675,0.7176047298643244,-0.0392266,0.015254788888890224,9.902537244444444,1.0
426,116.996,0.45,0.030480304560424006,0.00622916780624829,-0.9425265951381837,0.3313722207254243,0.015609194546760565,-0.048033269831821976,0.5107663415727204,-0.0392266,0.018445841666667812,9.889773033333334,1.0
427,117.12,0.7714285714285715,0.02817423319658951,0.004274469917077455,-0.9348630719327691,0.3534785929496633,0.003981486313044026,-0.044442470908164625,0.334886248946181,-0.03553929959999967,0.023300600400001537,9.874041298799998,1.0
428,117.194,0.7592592592592593,0.026737251396043535,0.003486840868816747,-0.9313482370701135,0.3627782009942435,-0.004926320470870306,-0.04169961574673626,0.2559994845390252,-0.03263653119999975,0.02620336880000146,9.8653329936,1.0
429,117.308,0.6607142857142857,0.02451898609088242,0.0026353013999585225,-0.9268041184451533,0.37470331515930944,-0.015646808691323087,-0.037986656486987826,0.1561406747102696,-0.030675201200000418,0.029419950000001208,9.853172747599999,1.0
430,117.388,0.6724137931034483,0.022954150788951935,0.0026883980642107386,-0.9251808644076771,0.37875367288090744,-0.017770996935665848,-0.03630270844697932,0.12503130829333908,-0.03381332920000035,0.029419950000001208,9.846896491599999,1.0
431,117.53,0.6212121212121212,0.02018961169232684,0.002791198137305072,-0.9223466645639526,0.38582437641859846,-0.02134936517590729,-0.03325689341648498,0.07067627842766132,-0.03906906345381508,0.029419950000001208,9.835912413453816,1.0
432,117.596,0.5584415584415584,0.019113841379208508,0.0029761355370827216,-0.9217842351841663,0.38720767813952006,-0.01993273323528967,-0.030930316502071117,0.05926862728583683,-0.03646971044176688,0.029419950000001204,9.833313060441768,1.0
433,117.718,0.575,0.01712529625495955,0.003317989518489878,-0.9207445929972886,0.3897646904115266,-0.017314110557178415,-0.026629674326942625,0.03818175699337419,-0.03166484578313253,0.0294199500000012,9.828508195783133,1.0
434,117.795,0.7,0.015923947137430394,0.003520892024335279,-0.9201896602190588,0.3911313592070124,-0.016029903162566455,-0.02453878675661391,0.02701888820304308,-0.02941995,0.0294199500000012,9.825484994444444,1.0
435,117.915,0.6266666666666667,0.01429029860023186,0.0037799950787417427,-0.9197744703358451,0.39216335397151536,-0.015665387941731338,-0.02404935989114972,0.01915404955959962,-0.02941995,0.0294199500000012,9.820815161111112,1.0
436,117.988,0.6533333333333333,0.013296495740102882,0.003937616103505654,-0.9195218964902236,0.39279115078658794,-0.015443641182390003,-0.02375162521465904,0.01436960605150547,-0.02941995,0.0294199500000012,9.817974345833333,1.0
437,118.109,0.6,0.011875086803302133,0.004162679536396575,-0.9192875690187015,0.39338301901063016,-0.014316126860678274,-0.021195489600300974,0.0090232900939884,-0.02941995,0.0294199500000012,9.813240068799999,1.0
438,118.205,0.5222222222222223,0.010832581637786432,0.004327582881031309,-0.9191712091051665,0.3936832764844785,-0.013134803690016303,-0.01838916154205807,0.005756663676351404,-0.02941995,0.0294199500000012,9.8094743152,1.0
439,118.308,0.6075949367088608,0.009811929178943165,0.00448252358181505,-0.9190801299724626,0.3939224983100521,-0.011706383197579395,-0.01587046114764952,0.003090968659793203,-0.02941995,0.0294199500000012,9.80665,1.0
440,118.428,0.7142857142857143,0.008887644334918288,0.004603542390748009,-0.9190653846916134,0.3939768030333582,-0.009606661464262173,-0.014268057209354323,0.0022559033565787683,-0.02941995,0.0294199500000012,9.80665,1.0
441,118.508,0.6714285714285714,0.008271454438901668,0.00468422159670332,-0.9190555545043806,0.3940130061822289,-0.00820684697538394,-0.013199787917157462,0.001699193154435779,-0.02941995,0.0294199500000012,9.80665,1.0
442,118.602,0.6617647058823529,0.007689984181156479,0.004711617844563064,-0.9190779086146624,0.3939721032709338,-0.007112711597515997,-0.011723007409428918,2.5518579905710022e-05,-0.02941995,0.0294199500000012,9.80665,1.0
443,118.748,0.7058823529411765,0.0068466905808026845,0.004725875427943499,-0.9191268613435158,0.3938735459738679,-0.005644461106642474,-0.009336275991007748,-0.003002002575542495,-0.02941995,0.0294199500000012,9.80665,1.0
444,118.806,0.8064516129032258,0.006578969705107336,0.0047112732170270614,-0.9191564082183,0.3938095138387797,-0.004907304949630344,-0.008484536092803476,-0.0036507417530482326,-0.02941995,0.0294199500000012,9.80665,1.0
445,118.948,0.7777777777777778,0.006112655456969476,0.004618555074266986,-0.9192571377707132,0.3935828103880021,-0.002669993233153575,-0.0066702591101339345,-0.00368182052062043,-0.02941995,0.0294199500000012,9.80665,1.0
446,119.007,0.6666666666666666,0.005918905170771307,0.004580031338894833,-0.9192989901903778,0.3934886167007071,-0.0017404059706735793,-0.005916439800433038,-0.003694733529682121,-0.02941995,0.0294199500000012,9.80665,1.0
447,119.138,0.5098039215686274,0.005646166931671753,0.004431101523055239,-0.9194263468126443,0.3931965190546695,-0.0008201750446985837,-0.005159815958510294,-0.004368040542376366,-0.02941995,0.0294199500000012,9.80665,1.0
448,119.223,0.6470588235294118,0.00548760733745166,0.0043270562220470155,-0.9195130080353099,0.3929972916265924,-0.00035679746834358316,-0.004776096957021322,-0.004880284022794201,-0.02941995,0.0294199500000012,9.80665,1.0
449,119.296,0.5945945945945946,0.005373385722703243,0.0042236968583380064,-0.9195946872444034,0.3928088878868135,1.0645887814502352e-05,-0.004407974630594188,-0.005368630774319257,-0.0302044820000004,0.0294199500000012,9.80665,1.0
450,119.428,0.5945945945945946,0.005272042430754225,0.003969702073066661,-0.9197771336045572,0.3923853026671131,0.0005288370242342393,-0.0035574838258325995,-0.0064836867526173675,-0.03538239320000004,0.0294199500000012,9.80665,1.0
451,119.508,0.5945945945945946,0.005210622253815423,0.003815765839568868,-0.9198877071561654,0.3921285843521431,0.0008428922584280345,-0.0030420348532497936,-0.007159478254616255,-0.03852052119999998,0.0294199500000012,9.80665,1.0
452,119.59,0.35135135135135137,0.005216278821428128,0.0036590626161675265,-0.9200111093347986,0.39184018832849693,0.0014698316929862526,-0.002361076509579954,-0.007713889636099384,-0.0392266,0.0294199500000012,9.80665,1.0
453,119.707,0.4,0.005251883580312504,0.003435907838181205,-0.9201912219309546,0.3914185598109186,0.002486775596160419,-0.0013282181969844044,-0.008449450891464932,-0.0392266,0.0294199500000012,9.80665,1.0
454,119.807,0.4642857142857143,0.005281110009633314,0.0032289229700285783,-0.9203583173702091,0.3910269036096923,0.0032524555509695066,-0.0011399969128350835,-0.008893405098423542,-0.0392266,0.0294199500000012,9.80665,1.0
455,119.917,0.4074074074074074,0.00531030880351982,0.0029614428243964486,-0.9205743261097679,0.39051947188612934,0.003841288413748575,-0.0026335140525092894,-0.008929462643317967,-0.0392266,0.0294199500000012,9.80665,1.0
456,119.999,0.4074074074074074,0.005332075177144303,0.0027620485340161477,-0.9207353508065299,0.39014120460129154,0.004280236547820213,-0.003746863192993617,-0.008956341904057448,-0.0392266,0.0294199500000012,9.80665,1.0
457,120.147,0.5454545454545454,0.004699819994107905,0.0020947817036776908,-0.9210291448631915,0.3894580997416898,0.004185262862592926,-0.014262830838561443,-0.009746371582150488,-0.0392266,0.03412714200000138,9.801942808,1.0
458,120.199,0.6176470588235294,0.004422622032678641,0.0018351366144735326,-0.921132629202533,0.3892180588926433,0.004079157549887902,-0.01865501068532442,-0.0100847405195236,-0.0392266,0.03616692520000109,9.799903024799999,1.0
459,120.315,0.6470588235294118,0.003437627130079276,0.0011189941225928797,-0.9213672300669896,0.38867303618021093,0.0033936029570177653,-0.027653249710798054,-0.010934103086590733,-0.0392266,0.0392266000000012,9.7923715176,1.0
460,120.42,0.5909090909090909,0.0018648432919786523,0.00021633990949260326,-0.9215865539438756,0.38816195852019586,0.0019390859701670614,-0.03431237528473143,-0.011878575768321754,-0.0392266,0.039226600000001194,9.7800151386,1.0
461,120.508,0.5909090909090909,0.0005467006467135098,-0.0005401702881532612,-0.9217703682406942,0.3877336267670404,0.0007200622097589832,-0.039893356718122615,-0.012670133825391477,-0.0392266,0.039226600000001194,9.7696593162,1.0
462,120.592,0.5689655172413793,-0.0009755927942175494,-0.00131051094577706,-0.9219403976883556,0.38732086678151534,0.0006945760098779335,-0.042216809666845365,-0.012640395439211359,-0.03668702928286866,0.03414745856573852,9.762344258565738,1.0
463,120.7,0.5333333333333333,-0.003032069744309264,-0.002319070156351733,-0.9221569663830235,0.38678871046246727,0.0010895438267815938,-0.04407518780029625,-0.012307019433028907,-0.03246743486055783,0.025708269721116846,9.753905069721116,1.0
464,120.793,0.4666666666666667,-0.004839881892429895,-0.003201685140008797,-0.9223422636113716,0.38632752444167573,0.0015379940716186253,-0.045707786849058026,-0.01203906457069741,-0.02941995,0.02078540956175427,9.746051935657372,1.0
465,120.893,0.423728813559322,-0.006990407194273783,-0.00422975920236292,-0.9225348403075138,0.3858151850984821,0.002625965474329257,-0.0476440339390025,-0.011857842555291856,-0.02941995,0.02859947330677404,9.73433084003984,1.0
466,120.992,0.5084745762711864,-0.009119427243099436,-0.005247552524093598,-0.9227254912366945,0.3853079691487204,0.003703057163012884,-0.049560918558047715,-0.011678432760040342,-0.02941995,0.03633539641434434,9.722726955378485,1.0
467,121.108,0.5483870967741935,-0.011755954319096885,-0.006502931643077808,-0.9229357291736091,0.3847074273080295,0.0035397656922074943,-0.05133026652786154,-0.011245139837115376,-0.02941995,0.03611525321285241,9.709056109638553,1.0
468,121.188,0.5492957746478874,-0.013620088713340044,-0.0073889992034961785,-0.9230764730311706,0.3842912487928808,0.0029667622594903393,-0.05239653138511152,-0.010874263100685119,-0.02941995,0.03296452228915781,9.699603916867469,1.0
469,121.348,0.5352112676056338,-0.017454752639100273,-0.009146395386767415,-0.9233396736831282,0.38346566319951064,0.001750498858746197,-0.05442702606320373,-0.00921849969774496,-0.02941995,0.026674088000001452,9.686224338,1.0
470,121.428,0.5,-0.0194404814759422,-0.01001561844711092,-0.9234595180399291,0.38305722346942156,0.0010972022428177993,-0.055376679450273414,-0.007803040184080744,-0.02941995,0.023535960000001518,9.68308621,1.0
471,121.508,0.6,-0.021426210312784126,-0.010884841507454427,-0.9235793623967301,0.3826487837393324,0.0004439056268894018,-0.0563263328373431,-0.006387580670416529,-0.02941995,0.020397832000001587,9.679948082000001,1.0
472,121.59,0.6101694915254238,-0.02352031985457083,-0.01181705523301508,-0.9236904654185984,0.3822215890875128,0.0004802130228314982,-0.05722642728378847,-0.006851249707064435,-0.02941995,0.019613300000001183,9.676750802777779,1.0
473,121.709,0.6440677966101694,-0.02658682957354737,-0.013189217286184237,-0.923846205579687,0.3815976361585389,0.000863376804137797,-0.05849834745897661,-0.008420387382752132,-0.02941995,0.019613300000001183,9.672119884722223,1.0
474,121.807,0.5060240963855421,-0.029167192744296355,-0.014334216004264655,-0.9239692839279985,0.3810759664688631,0.0007909349111404453,-0.05973643166643959,-0.009605109710396536,-0.027284631048387055,0.017477981048388238,9.667221581048388,1.0
475,121.885,0.5135135135135135,-0.03133606922335034,-0.015276900302668595,-0.924056406311104,0.38064438018224184,-7.87714914974771e-05,-0.061120808785480873,-0.010323039432536943,-0.02111593185483855,0.011309281854839735,9.66105288185484,1.0
476,122.015,0.5211267605633803,-0.034950863355106714,-0.016848040800008377,-0.9242016102829465,0.3799250697045398,-0.0015282821625605754,-0.06342810398388285,-0.011519588969437533,-0.010834766532258459,0.0010281165322596417,9.65077171653226,1.0
477,122.119,0.7121212121212122,-0.03802345832320997,-0.018140549474885276,-0.9242972094116616,0.3793209731937107,-0.0009910702593192919,-0.06465174131576089,-0.011936877598805757,-0.017003465725806254,0.010795223588710559,9.656940415725806,1.0
478,122.228,0.6379310344827587,-0.04127083849339787,-0.019500527652254206,-0.9243943256944842,0.3786835442324644,-0.0001739739541775792,-0.0658410484752347,-0.012293383869672955,-0.02562382741935455,0.023725766129033005,9.665560777419355,1.0
479,122.313,0.6551724137931034,-0.04393821353455799,-0.020608504719985488,-0.924452138714589,0.3781829994097897,0.00019776357733644742,-0.06796632552146938,-0.012451260708272448,-0.02941995,0.026517181600000703,9.673711052600002,1.0
480,122.401,0.75,-0.0468810668834125,-0.021819307648939225,-0.9244879243109693,0.3776601315677887,0.00022610268206335604,-0.0717754065990448,-0.012453361414372912,-0.02941995,0.019613300000001187,9.684066875,1.0
481,122.508,0.7166666666666667,-0.05045930902349719,-0.02329153393755352,-0.9245314363429317,0.3770243718053556,0.0002605604571290312,-0.07640690290927885,-0.012455915682017794,-0.02941995,0.01121880760000124,9.6966586136,1.0
482,122.649,0.6527777777777778,-0.05448897255854758,-0.024946572489838215,-0.9246422062842587,0.37607229127236336,0.00016107080287236774,-0.061784096240284615,-0.01144741696724851,-0.02461430079681266,0.009806650000001188,9.708388148406375,1.0
483,122.708,0.6818181818181818,-0.05613316165846409,-0.025621654479205593,-0.9246918287188499,0.3756669035710431,0.0001105676234451197,-0.05439617529333367,-0.010963459439813146,-0.022309151992031925,0.00980665000000119,9.712998446015936,1.0
484,122.82,0.6379310344827587,-0.0586843060923939,-0.026682865064627873,-0.9248340264142382,0.37486447989502447,0.00016124896376773702,-0.04246570943183224,-0.011099414209801692,-0.0196133,0.009806650000001192,9.725110244820716,1.0
485,122.905,0.6140350877192983,-0.05992625337861688,-0.02721996211557509,-0.9250003984534559,0.3742154629982999,0.0003781855302079859,-0.03596151946669099,-0.012486968041059938,-0.0196133,0.009806650000001194,9.73839415318725,1.0
486,122.988,0.6842105263157895,-0.061138978375752134,-0.027744421588852906,-0.9251628558564566,0.3735817170873806,0.0005900177068496168,-0.029610369265436125,-0.013841873546876661,-0.0196133,0.009806650000001195,9.751365499003983,1.0
487,123.084,0.6376811594202898,-0.062261294267884626,-0.028230219250083094,-0.9254035641057579,0.3727634980142145,0.0005867342808769944,-0.025076947675876902,-0.015605653053617084,-0.0196133,0.007618712151395639,9.766368501394423,1.0
488,123.239,0.6376811594202898,-0.06375004189483063,-0.028875257584292116,-0.9258531070766388,0.37134414265092236,0.00029508179156627936,-0.021000928419875744,-0.01868022474426922,-0.0196133,0.0015628127490049312,9.790592099003986,1.0
489,123.322,0.5476190476190477,-0.06441579646676407,-0.029184982950254835,-0.9261397105730681,0.3704892945684023,-9.182995432116027e-05,-0.018832534790996447,-0.020726237042122713,-0.01791978212851387,0.0016935178714873307,9.803617421485944,1.0
490,123.411,0.4827586206896552,-0.06499856357372498,-0.02948150582402403,-0.9264927971832565,0.3694780831347872,-0.0007368659141967186,-0.0165216028241508,-0.023318774841097463,-0.014414593975903615,0.005198706024097587,9.817638174096386,1.0
491,123.518,0.6716417910447762,-0.06569919369108249,-0.029837999616083632,-0.9269172945685391,0.368262357029205,-0.0015123585850583517,-0.013743291358392529,-0.026435646127505336,-0.010200491365462035,0.00941280863453917,9.834494584538152,1.0
492,123.615,0.6567164179104478,-0.06618169819972991,-0.03016135844267665,-0.9272923766233421,0.36720121549068163,-0.0007056784542441488,-0.012627921664560537,-0.023535641563307046,-0.00980665,0.009806650000001206,9.84626730318725,1.0
493,123.721,0.64,-0.06668979769620438,-0.03051474252170075,-0.9277010363544814,0.3660467630620624,0.0003654772310937523,-0.011585327087942299,-0.019647389835867085,-0.00980665,0.009806650000001207,9.858691664541833,1.0
494,123.801,0.6666666666666666,-0.06708953939818964,-0.030754039528750263,-0.9279581684655395,0.3653033038085274,0.0007217382974922075,-0.011218593977391772,-0.016554305512457842,-0.00980665,0.00980665000000121,9.8672158704,1.0
495,123.897,0.6142857142857143,-0.06762070301870103,-0.03095448712383172,-0.9281044630535088,0.36481554641512215,-0.0002812129221857556,-0.012107655070722189,-0.012340994853525949,-0.00980665,0.00980665000000121,9.8747473776,1.0
496,123.971,0.6285714285714286,-0.06803014164284521,-0.031108998811707,-0.9282172317984017,0.3644395667577056,-0.0010543211540208026,-0.012792972996831008,-0.009093234553932824,-0.00980665,0.009806650000001211,9.8805529144,1.0
497,124.098,0.6911764705882353,-0.0684096691044797,-0.03107192142670222,-0.9283779328864102,0.3639627607749072,-0.0024820111030713033,-0.0018505999632175384,-0.005497926061972936,-0.00980665,0.007100014600001109,9.8878098354,1.0
498,124.199,0.75,-0.06849546949382944,-0.03084038091689044,-0.9284837849475526,0.36369618046110197,-0.0036848482862115108,0.01495274677872686,-0.00396131113171575,-0.00980665,0.0031381280000011454,9.891771722,1.0
499,124.291,0.7916666666666666,-0.06814583324665978,-0.0304555275287529,-0.9286080536693513,0.3634713044649691,-0.00470403312891722,0.032107244402170325,-0.0027912705615162907,-0.009335930799999982,1.211892260517727e-15,9.8958512884,1.0
500,124.401,0.7534246575342466,-0.06431786119027985,-0.028608857020614043,-0.928978620798998,0.3633455078019742,-0.005313089556992053,0.0673523081541061,-0.0032228387556970197,-0.0050210048000000045,1.2129491125806187e-15,9.9044811404,1.0
501,124.508,0.7027027027027027,-0.0605942883718012,-0.026812550253606248,-0.9293390815523815,0.36322314195706096,-0.0059055353552103,0.10163614289462541,-0.003642636908218274,-0.0008237586000000314,1.2139771414054314e-15,9.9128756328,1.0
502,124.657,0.7297297297297297,-0.052718773515410426,-0.023277473016862317,-0.9299136828376255,0.36315076873849317,-0.005902704724348063,0.11903676548424849,-0.004023530533281615,0.0,1.2117675482065626e-15,9.89483293509804,1.0
503,124.708,0.7702702702702703,-0.04987204906427615,-0.02200943330209546,-0.9301144382221688,0.36313150130027594,-0.005855248810029501,0.12328889825764786,-0.004142465455201915,0.0,1.210806773603934e-15,9.88698761509804,1.0
504,124.801,0.7368421052631579,-0.04462278211450046,-0.019687205565659185,-0.9304630382505987,0.36310255959862553,-0.005528707141132129,0.12919754767224867,-0.004220122745758346,0.0,1.2092097155907766e-15,9.873946646761134,1.0
505,124.893,0.8,-0.03917265158852986,-0.01734607655330732,-0.9307305696054633,0.3631013179191225,-0.004144252980173257,0.1268820582855087,-0.0036812242835021556,0.0,1.2083150671753733e-15,9.86664128805668,1.0
506,125.046,0.75,-0.03018935756379204,-0.013497916746353913,-0.9311620772834196,0.3630864609554687,-0.002114857243169556,0.1224623919441932,-0.0030216808550105464,0.0,1.2068266350091847e-15,9.85448731707317,1.0
507,125.108,0.7222222222222222,-0.02684921818922877,-0.012107189420862259,-0.9312869479521455,0.36303275058528545,-0.002310303994833029,0.11855047193121136,-0.0036367384832337373,0.0,1.2062212688977725e-15,9.849544127642277,1.0
508,125.2,0.6891891891891891,-0.0218928823431025,-0.01004352951851975,-0.9314722399121904,0.3629530513263039,-0.0026003217553659313,0.11274568739581882,-0.0045494046412423664,0.0,1.2053229837001926e-15,9.842209072357724,1.0
509,125.328,0.7432432432432432,-0.015455642603402896,-0.007342370345989428,-0.9316819151107505,0.36283860787472294,-0.0025355134527198855,0.10372863307595237,-0.0050324811711907405,0.0,1.2043261605220264e-15,9.8340693934,1.0
510,125.411,0.6951219512195121,-0.011730403843864857,-0.005757289142756203,-0.9317707639810741,0.36276091558313717,-0.002035006268881259,0.0969605493545532,-0.0045755167566239935,0.0,1.2039274390619354e-15,9.830813585600001,1.0
511,125.548,0.7419354838709677,-0.0057845362181079725,-0.0032550824322511236,-0.9319065008812875,0.3626283886815871,-0.0010004361500032118,0.08548274415731423,-0.0036433454044163217,0.0,1.2032693084591348e-15,9.825439541400002,1.0
512,125.602,0.7741935483870968,-0.003882939483228053,-0.00251730743544637,-0.9319362332180915,0.3625668160721471,-0.00013883759966115596,0.08029155284166309,-0.002888573799282282,0.0,1.203009899316425e-15,9.823321305,1.0
513,125.708,0.6712328767123288,-0.00015017552216780444,-0.0010690824417186498,-0.9319945966940402,0.3624459513202834,0.0015524484436027289,0.07010143655538584,-0.0014069850929081889,0.0,1.2025006887770319e-15,9.8191632854,1.0
514,125.803,0.7777777777777778,0.0028895557155876,8.984545310886975e-05,-0.9320401616616617,0.36233842173502767,0.002881657598274066,0.06102544533473189,-0.0009691656884988035,0.0,1.2020453121161668e-15,9.815444852777777,1.0
515,125.868,0.7777777777777778,0.004414338684665425,0.0006303839503847639,-0.9320590957825913,0.36226628805204375,0.0034523517824709034,0.054918439541426375,-0.002285693138320332,0.0,1.2017355385587717e-15,9.812915359722222,1.0
516,125.995,0.7974683544303798,0.007393530024248581,0.001686513014293166,-0.932096090141946,0.3621253499329829,0.004567400419286385,0.0429862897606589,-0.004857985232587294,0.0,1.201130288685092e-15,9.807973119444444,1.0
517,126.106,0.7564102564102564,0.009169888394173273,0.002219553245471311,-0.9321289281391384,0.36200044651085916,0.005064414316914462,0.032787198453132674,-0.004357902180548233,0.0,1.2009682532858392e-15,9.80665,1.0
518,126.205,0.8051948051948052,0.010428319290587035,0.0025413636961808357,-0.9321584147047495,0.3618883682802013,0.0053196246680094865,0.023781210228622802,-0.00282953737815659,0.0,1.2009682532858392e-15,9.80665,1.0
519,126.315,0.8356164383561644,0.011519197911434827,0.002806628409936804,-0.9321923633945405,0.3617688515397383,0.0050329452167344035,0.014554617859855347,-0.0017929851324353515,0.0,1.2009682532858392e-15,9.80665,1.0
520,126.396,0.7945205479452054,0.011837462836359789,0.0028563136196189877,-0.9322192331369207,0.3616887564486773,0.003922040338616747,0.008991366563678915,-0.002073707705621716,0.0,1.2009682532858392e-15,9.80665,1.0
521,126.517,0.8589743589743589,0.012312895625445186,0.002930534735317059,-0.9322593718878837,0.3615691082262282,0.002262540458959638,0.0006808306767987216,-0.002493058710011191,0.0,1.2009682532858392e-15,9.80665,1.0
522,126.59,0.8133333333333334,0.012127415916902185,0.002741159068293951,-0.9322771268319349,0.36153074381089767,0.0023727332486723077,-0.00421088738079441,-0.002606645719040622,0.0,1.2009682532858392e-15,9.80665,1.0
523,126.715,0.8676470588235294,0.011650714958313829,0.002338010628072942,-0.9323053527365996,0.3614764436553361,0.0029357891711610643,-0.012545995332395513,-0.002754183587213736,0.0,1.2009682532858392e-15,9.80665,1.0
524,126.828,0.8676470588235294,0.01095525137201966,0.001857702147599729,-0.9323308686293574,0.3614339913569306,0.0032446683309972292,-0.018391173422336635,-0.0026529017854481844,0.0,1.2007376673812083e-15,9.8047671232,1.0
525,126.922,0.7464788732394366,0.010078742325022797,0.0013276375349647873,-0.9323520938730911,0.36140615126430004,0.003276178071275352,-0.021350062251090873,-0.002304315527901066,0.0,1.2002861033179728e-15,9.8010798228,1.0
526,127.009,0.7887323943661971,0.009267505228334126,0.000837045819015377,-0.932371738513568,0.3613803843700569,0.0033053413415327667,-0.024088608294725394,-0.001981687821447849,0.0,1.1998681663658295e-15,9.797667108599999,1.0
527,127.108,0.7424242424242424,0.00813215309138094,0.00022046029846050372,-0.9323901252290058,0.3613585188313369,0.003366035934537651,-0.025861519843339963,-0.0005750002972781125,0.0,1.2001419871275786e-15,9.799903024799999,1.0
528,127.189,0.7575757575757576,0.007156480794351687,-0.0002968667947489905,-0.9324042949387374,0.36134227112071926,0.003421754778362805,-0.02701616777479637,0.0008049197224898764,0.0,1.2005311008416432e-15,9.803080379399999,1.0
529,127.306,0.7741935483870968,0.005731167780735863,-0.001033857934020871,-0.9324252683930397,0.36131434356509856,0.0035117256985717515,-0.028281989548192086,0.0018488156416294733,0.0,1.2009682532858392e-15,9.80665,1.0
530,127.435,0.7258064516129032,0.004097892099613658,-0.001806848279255697,-0.9324503459815803,0.3612663458662669,0.0036475389168052303,-0.02812631986293185,-0.000663631012203111,0.0,1.2009682532858392e-15,9.80665,1.0
531,127.508,0.7910447761194029,0.0031736353188236937,-0.0022442769242334874,-0.9324645371750954,0.36123918437778074,0.0037243944589063363,-0.028038227715459014,-0.002085403149643071,0.0,1.2009682532858392e-15,9.80665,1.0
532,127.607,0.7702702702702703,0.0006876969924744089,-0.0020889322693017115,-0.9324875135292684,0.36118005705918504,-0.015532508804779466,-0.044635527524123544,-0.0032765998637834266,0.0,1.2009682532858392e-15,9.80665,1.0
533,127.708,0.7162162162162162,-0.002228989160805744,-0.0016993318938337762,-0.9325121059079241,0.3611128527365008,-0.04115609986236192,-0.06672935044190881,-0.004264328179948253,0.0,1.2009682532858392e-15,9.80665,1.0
534,127.788,0.5675675675675675,-0.004854801101188194,-0.001233185643537876,-0.9325262309987401,0.36105349047776897,-0.0609422000944606,-0.0838031617403023,-0.004937525987625128,0.0,1.2008529603335237e-15,9.8057085616,1.0
535,127.899,0.5945945945945946,-0.012438739129177303,0.00138102154870062,-0.9324789712251277,0.36089456308204004,-0.08202911837399002,-0.10217032226920124,-0.004508436778560269,0.0,1.199253270620147e-15,9.7926461038,1.0
536,127.993,0.5675675675675675,-0.018861173134861124,0.003594854666451916,-0.9324389494348613,0.3607599759180894,-0.09988650862872483,-0.1177244942486276,-0.004145063934847722,0.0,1.1978985784304406e-15,9.781584202600001,1.0
