,time,img_sim,orientation.x,orientation.y,orientation.z,orientation.w,angular_velocity.x,angular_velocity.y,angular_velocity.z,linear_acceleration.x,linear_acceleration.y,linear_acceleration.z,ground_truth
0,213.397,1.0,-0.0007493897794399032,0.0006692407049490255,-0.7065983541252462,-0.7076141296470034,0.0006369381639327273,-0.0005489718444938559,-0.0005644340507790006,0.0,-0.019496089043824053,9.80665,1.0
1,213.49,1.0,-0.0007506093412925998,0.0006696682526993288,-0.7065941050788401,-0.7076183708278071,0.0006187554512384429,-0.0005310149381004004,-0.0005797431788006539,0.0,-0.015862549402389167,9.80665,1.0
2,213.58,1.0,-0.0007517895624403706,0.000670082008586719,-0.7065899930984471,-0.7076224751963267,0.0006011592776633318,-0.0005136372867518978,-0.0005945584639828968,0.0,-0.012346220717130138,9.80665,1.0
3,213.698,1.0,-0.0007538689159313363,0.0006702554561329823,-0.7065853152931979,-0.7076271437869923,0.0005967841260640105,-0.0004974583600531802,-0.0005865497633826038,0.0,-0.011894009236946524,9.80665,1.0
4,213.798,1.0,-0.0007561839565934289,0.0006700188973590482,-0.7065820925731374,-0.7076303594936199,0.0006125071373521286,-0.000490612320949784,-0.0005512504637836082,0.0,-0.01583242289156485,9.80665,1.0
5,213.9,1.0,-0.0007586015066002496,0.0006698395407009879,-0.7065787539807288,-0.7076336907293606,0.0006289570497263565,-0.00048677257236197184,-0.0005166395249650386,0.0,-0.019378878087648196,9.80665,1.0
6,213.98,1.0,-0.0007612029862164022,0.000670476070899874,-0.7065754902320537,-0.7076369461610711,0.0006470346702281272,-0.0005232052250479482,-0.0005069913755846322,0.0,-0.016253252589640912,9.80665,1.0
7,214.1,1.0,-0.0007651052056406319,0.0006714308661982034,-0.7065705946090409,-0.707641829308637,0.0006741511009807898,-0.0005778542040769255,-0.0004925191515140194,0.0,-0.011564814342628871,9.80665,1.0
8,214.177,1.0,-0.0007676010173648391,0.0006716000657076772,-0.7065674911813183,-0.7076449251697883,0.0006685616947845248,-0.0005965475303898895,-0.0004991250394106625,0.0,-0.011066942369476036,9.80665,1.0
9,214.3,1.0,-0.0007715696102128053,0.0006708741784117333,-0.7065626189626178,-0.7076497862866673,0.0006079916219529956,-0.0005896286234768278,-0.0005453767752402053,0.0,-0.015911191164657595,9.80665,1.0
10,214.38,1.0,-0.0007741508088131077,0.0006704020565932333,-0.7065594500398857,-0.7076529479887025,0.0005685964526316897,-0.0005851285214195536,-0.0005754592050480277,0.0,-0.019061922088351807,9.80665,1.0
11,214.495,1.0,-0.0007771302370207821,0.0006705992665727739,-0.7065548324058901,-0.7076575549717704,0.0006079168877022307,-0.0005752293061505044,-0.0005253479459952364,0.0,-0.015744270117186338,9.80665,1.0
12,214.574,1.0,-0.0007791073633352088,0.0006708181445185606,-0.7065516543590694,-0.7076607256760449,0.0006440649331125345,-0.0005681023349097808,-0.0004820342919629146,0.0,-0.012717999218748544,9.80665,1.0
13,214.7,1.0,-0.000782860202130247,0.0006709319156359975,-0.7065466849107961,-0.7076656830592954,0.0006735768875228331,-0.0005577938561138471,-0.000462629985181624,0.0,-0.0098066499999988,9.80665,1.0
14,214.783,1.0,-0.0007859325188866187,0.0006707712359233418,-0.7065435108467495,-0.7076688488211716,0.0006648396760342666,-0.0005520632837395516,-0.0004995890965919935,0.0,-0.0098066499999988,9.80665,1.0
15,214.9,1.0,-0.0007902450480682528,0.000670563080325737,-0.7065390354552127,-0.7076733125051524,0.0006521029844729851,-0.0005445728930945134,-0.0005507196699674729,0.0,-0.009964821774193092,9.80665,1.0
16,214.98,1.0,-0.000792839777852729,0.0006707751027182444,-0.7065359539467099,-0.7076763859216306,0.0006352739479963584,-0.0005508023520721301,-0.0005669746099175097,0.0,-0.01312825725806319,9.80665,1.0
17,215.077,1.0,-0.0007959858877164074,0.0006710321798691595,-0.7065322176176502,-0.7076801124391104,0.0006148687412684428,-0.0005583555710824927,-0.0005866837246069348,0.0,-0.01696392278225678,9.80665,1.0
18,215.18,1.0,-0.0007988368724114911,0.0006707868024214179,-0.7065284821952846,-0.7076838388235395,0.0006022246271169869,-0.0005645584160776204,-0.0005893230112830551,0.0,-0.018195471084336067,9.80665,1.0
19,215.271,1.0,-0.0008005504491768562,0.0006697176884121552,-0.7065255634739377,-0.7076867518299199,0.0006058904203028976,-0.0005670499786394215,-0.0005615826078548508,0.0,-0.014611514658633987,9.80665,1.0
20,215.38,1.0,-0.000802602975192514,0.000668437101302159,-0.7065220674230934,-0.7076902410353645,0.0006102813154376712,-0.0005700343777519093,-0.000528355091660618,0.0,-0.010318643775099418,9.80665,1.0
21,215.493,1.0,-0.0008049948082434381,0.0006682608889770403,-0.7065174372039614,-0.707694860993803,0.0006265924483782551,-0.0005720875439775803,-0.0005267475000248692,0.0,-0.013713681872508463,9.80665,1.0
22,215.586,1.0,-0.0008069915520676848,0.0006682390509473392,-0.7065135188731476,-0.7076987705414459,0.0006412747752040163,-0.0005736659666842438,-0.0005289379505448014,0.0,-0.01734722151394335,9.80665,1.0
23,215.695,1.0,-0.0008093865327032477,0.000668157090789809,-0.7065091323892758,-0.7077031470011697,0.0006443317863622704,-0.0005815092112917244,-0.0005316235233131658,0.0,-0.0196132999999988,9.80665,1.0
24,215.78,1.0,-0.000811302698604701,0.0006680431895545468,-0.7065058943997977,-0.7077063774131952,0.0006341656050329435,-0.0005929406312112484,-0.0005338226655587195,0.0,-0.0196132999999988,9.80665,1.0
25,215.9,1.0,-0.0008140579671235942,0.0006678733955248854,-0.7065012998421898,-0.7077109611770913,0.000620978663531923,-0.0006083074810807944,-0.0005378207762858162,0.0,-0.019419492687746003,9.80665,1.0
26,215.98,1.0,-0.0008166629074414871,0.0006676223177900996,-0.7064978798691646,-0.7077143724802886,0.0006300555247622027,-0.0006067204595591303,-0.000554185586368566,0.0,-0.016318575691699012,9.80665,1.0
27,216.088,1.0,-0.0008201795768706432,0.0006672833628481386,-0.7064932629055806,-0.7077189777396048,0.0006423092874230833,-0.0006045779805048831,-0.0005762780799802836,0.0,-0.01213233774703459,9.80665,1.0
28,216.18,1.0,-0.0008227142544094012,0.0006674432492183199,-0.7064895244276012,-0.7077227066537345,0.0006480596295976443,-0.0005999479140249272,-0.0005839701535968239,0.0,-0.011077147165991055,9.80665,1.0
29,216.284,1.0,-0.0008246024143854983,0.0006685748818999493,-0.7064857105584168,-0.7077265105731124,0.0006446233924161572,-0.0005887685629241333,-0.0005690801682738747,0.0,-0.015206262955463908,9.80665,1.0
30,216.38,1.0,-0.0008263453312865113,0.0006696194659137612,-0.7064821900637852,-0.7077300218833076,0.0006414514811717069,-0.000578449161908014,-0.0005553355664373036,0.0,-0.01901775445343954,9.80665,1.0
31,216.479,1.0,-0.0008289443580895992,0.0006703419517445447,-0.7064781656738058,-0.7077340353976187,0.0006185211082920423,-0.0005603133114054794,-0.0005456696902401742,-0.003295034400000125,-0.016318265599998674,9.80665,1.0
32,216.58,1.0,-0.0008317419330868341,0.0006710144068331296,-0.706473988226401,-0.7077382014938259,0.0005915459780953819,-0.0005404458369594064,-0.0005366298509761688,-0.007256921000000089,-0.01235637899999871,9.80665,1.0
33,216.7,1.0,-0.0008345160117725038,0.0006723163942263675,-0.7064695538616103,-0.707742623425225,0.0005978003939535066,-0.0005470178177464218,-0.0005436344165728943,-0.007640522489960649,-0.0098066499999988,9.80665,1.0
34,216.78,1.0,-0.000835932243238677,0.0006735807131600712,-0.7064670143582794,-0.7077451554694063,0.0006321489730995705,-0.0005751748783906608,-0.0005622850113873724,-0.004489791566265317,-0.0098066499999988,9.80665,1.0
35,216.9,1.0,-0.0008380215803063839,0.0006753631614082975,-0.7064631406651146,-0.7077490180003758,0.0006805568689061143,-0.0006144754071460214,-0.0005873049868166861,0.0,-0.010041071912349401,9.80665,1.0
36,216.98,1.0,-0.000838971010018519,0.0006751070783109505,-0.706459741986205,-0.7077524095738589,0.0006733724758849009,-0.0006034983049770211,-0.0005665433577324987,0.0,-0.013166697410356688,9.80665,1.0
37,217.1,1.0,-0.0008403951545867221,0.0006747229536649299,-0.7064546439678403,-0.7077574969340833,0.0006625958863530782,-0.0005870326517235168,-0.0005354009141062101,0.0,-0.01785513565736873,9.80665,1.0
38,217.18,1.0,-0.0008413131385711337,0.0006743407443733164,-0.7064511902630445,-0.7077609435411684,0.0006461556477006537,-0.0005826042394619435,-0.000517826708965004,0.0,-0.0196132999999988,9.80665,1.0
39,217.296,1.0,-0.0008425855915275598,0.0006735514056383091,-0.7064460798071173,-0.7077660437197998,0.0006050617608707462,-0.0005883916707243763,-0.0004982863804325491,0.0,-0.0196132999999988,9.80665,1.0
40,217.38,1.0,-0.0008435070229787649,0.0006729798155198553,-0.7064423791321355,-0.7077697369526018,0.0005753041186835669,-0.0005925825692247593,-0.0004841364873573208,0.0,-0.0196132999999988,9.80665,1.0
41,217.5,1.0,-0.0008438070907709189,0.0006734476181469468,-0.7064363368175832,-0.7077757670337748,0.0006089958139151947,-0.0006196534911092987,-0.0005297731404425564,0.0,-0.0196132999999988,9.80665,1.0
42,217.58,1.0,-0.0008439103490273619,0.0006738818065592145,-0.7064322366425476,-0.7077798589006817,0.000638714335749804,-0.0006397087651301246,-0.0005664690792660435,0.0,-0.0196132999999988,9.80665,1.0
43,217.7,1.0,-0.0008448893163272554,0.0006734185572139284,-0.7064266024917164,-0.707785481569454,0.0006543796785521302,-0.0006370574030311683,-0.0005859403747543255,0.0,-0.017517523991934552,9.80665,1.0
44,217.786,1.0,-0.0008463375052304734,0.0006720768239292457,-0.7064230322678567,-0.707789044452481,0.0006394125643231336,-0.0006055008322413593,-0.0005676669109473756,0.0,-0.014116830846773017,9.80665,1.0
45,217.898,1.0,-0.0008482619516525506,0.0006703459931627395,-0.7064183969167439,-0.7077936702053529,0.0006209324353840179,-0.0005652296899352236,-0.0005445007141679525,-0.00011767979999944701,-0.0098066499999988,9.80665,1.0
46,217.985,1.0,-0.0008508415359966184,0.0006694683999210519,-0.7064151982184265,-0.707796860372954,0.0006351371621713047,-0.0005572540080174802,-0.0005443370435386895,-0.0035303940000001336,-0.0098066499999988,9.80665,1.0
47,218.1,1.0,-0.000854251331393948,0.0006683083628774423,-0.7064109700539838,-0.7078010772611624,0.0006539135251659874,-0.0005467114399652944,-0.0005441206973046064,-0.008041452999999376,-0.0098066499999988,9.80665,1.0
48,218.18,1.0,-0.000856784849860368,0.0006676257109009867,-0.706407684404587,-0.7078043540188393,0.0006689860369078807,-0.0005444747814908623,-0.0005467904673423614,-0.00980665,-0.011179580999998665,9.80665,1.0
49,218.281,1.0,-0.0008602455447439949,0.0006669656775237629,-0.7064029773709589,-0.707809048126544,0.0006912788702175012,-0.0005499250134453176,-0.0005547389574348922,-0.00980665,-0.01514146759999863,9.80665,1.0
50,218.38,1.0,-0.0008636377110160645,0.0006663187141144052,-0.7063983635459177,-0.7078136492816209,0.0007131302612833646,-0.0005552673200145357,-0.0005625300516840058,-0.00980665,-0.01902490099999822,9.80665,1.0
51,218.5,1.0,-0.0008639026868667172,0.000665501425085286,-0.7063931201871992,-0.7078188825365269,0.0006803655858440797,-0.0005763273617166324,-0.0005623235598660915,-0.005654640927419599,-0.0196132999999988,9.80665,1.0
52,218.595,1.0,-0.0008636774113436471,0.0006648506621742199,-0.7063890086828163,-0.7078229866362293,0.0006477258547449557,-0.0005946493343329953,-0.0005610686907124134,-0.0018980612903227254,-0.0196132999999988,9.80665,1.0
53,218.716,1.0,-0.0008637556469650431,0.00066409417017277,-0.70638318989404,-0.707828794180345,0.000633644213414063,-0.0006038833733025954,-0.000568764397677536,-0.002829586758893729,-0.0196132999999988,9.80665,1.0
54,218.78,1.0,-0.0008639240274963999,0.0006637192130414046,-0.7063799097650861,-0.7078320677310208,0.0006357571008898644,-0.0006038628768437201,-0.0005760671887933303,-0.005310320355731538,-0.0196132999999988,9.80665,1.0
55,218.9,1.0,-0.0008643108843644722,0.0006629877748873528,-0.7063737606645598,-0.7078382044315358,0.0006405799743162148,-0.0006034862552582455,-0.0005871818111517392,-0.009649113453814523,-0.019455763453813325,9.80665,1.0
56,218.986,1.0,-0.0008660667281967095,0.0006618734652881384,-0.7063693775284113,-0.7078425773147062,0.0006619351691600057,-0.0005961876125523759,-0.0005415655505641514,-0.006262077710843576,-0.016068727710842376,9.80665,1.0
57,219.088,1.0,-0.0008681492406488982,0.0006605518422751164,-0.7063641789250725,-0.7078477637575364,0.0006872634235096238,-0.0005875310828314588,-0.00048746254382072123,-0.0022448957831329623,-0.012051545783131761,9.80665,1.0
58,219.18,1.0,-0.0008692324879211769,0.0006600113119270849,-0.7063597791361624,-0.7078521534974613,0.0007018104859162122,-0.0005851904617156832,-0.00047202747082337586,-0.0013729309999998662,-0.0098066499999988,9.80665,1.0
59,219.3,1.0,-0.0008689564547110139,0.0006606902502881963,-0.706354654494868,-0.7078572669842181,0.0007031580444891006,-0.0005937510950025172,-0.0005227667628787462,-0.006080123000000045,-0.0098066499999988,9.80665,1.0
60,219.38,1.0,-0.0008687724325709053,0.0006611428758622705,-0.7063512380673383,-0.7078606759753895,0.000704056416871026,-0.0005994581838604053,-0.0005565929575823184,-0.00921825099999942,-0.0098066499999988,9.80665,1.0
61,219.5,1.0,-0.0008684733207087088,0.000660325925416888,-0.7063463188887735,-0.7078655857324587,0.0007051071862224489,-0.0006108789704740038,-0.0005632631573826073,-0.005687857000000402,-0.0098066499999988,9.80665,1.0
62,219.58,1.0,-0.0008682717148337174,0.0006596388261860143,-0.706343059004276,-0.7078688395010109,0.0007057794334832579,-0.000618765223771334,-0.0005635129008442162,-0.0025497289999999112,-0.0098066499999988,9.80665,1.0
63,219.695,1.0,-0.0008692255862290412,0.0006582386067741852,-0.7063382455022126,-0.7078736427246135,0.0007004535481504428,-0.0006274057524853875,-0.000556489150781943,0.0,-0.011760165936253297,9.80665,1.0
64,219.78,1.0,-0.0008711256357159242,0.000656807289586719,-0.706334565264167,-0.7078773139369254,0.0006904710015556603,-0.0006312017639323449,-0.000544203817519726,0.0,-0.015081143027887389,9.80665,1.0
65,219.898,1.0,-0.0008737912221409523,0.0006548557465181334,-0.7063294715653904,-0.7078823950693413,0.0006768553079214381,-0.0006360662116923442,-0.0005277552233773287,0.0,-0.01953453172690606,9.80665,1.0
66,219.98,1.0,-0.0008767669083951616,0.0006549288871012678,-0.7063265500584271,-0.7078853063718544,0.0006771647113274379,-0.000623110564655614,-0.0005407633928929907,0.0,-0.01630503253011947,9.80665,1.0
67,220.097,1.0,-0.0008810127046359247,0.0006550332462259841,-0.7063223815667845,-0.7078894603034891,0.0006776061771628279,-0.0006046250682739336,-0.0005593238298848544,0.0,-0.01169708855421556,9.80665,1.0
68,220.18,1.0,-0.0008830981004675356,0.0006546501828020016,-0.706319125696223,-0.707892706711603,0.0006666205357760202,-0.0005937833653297279,-0.0005676214885897932,0.0,-0.011179580999998665,9.80665,1.0
69,220.3,1.0,-0.000884275920035063,0.0006531900316344608,-0.7063138260843009,-0.7078979943608591,0.0006283345166593786,-0.0005826133897062391,-0.0005699636158533394,0.0,-0.015886772999998845,9.80665,1.0
70,220.38,1.0,-0.0008850611330800812,0.000652216597522767,-0.7063102930096861,-0.7079015194603632,0.000602810503914957,-0.0005751667392905817,-0.0005715250340290363,0.0,-0.01902490099999822,9.80665,1.0
71,220.5,1.0,-0.0008858402185555753,0.0006521212427860598,-0.706304748043707,-0.7079070509958671,0.0006388646841514816,-0.0005981414101552195,-0.000531680993735794,0.0,-0.015494506999999201,9.80665,1.0
72,220.58,1.0,-0.0008863216341971397,0.0006521876535740488,-0.7063010280326679,-0.7079107619134649,0.0006699808232951918,-0.0006167097284924245,-0.0005011005699634542,0.0,-0.01235637899999871,9.80665,1.0
73,220.7,1.0,-0.0008872694239424758,0.0006522054217428447,-0.706296028492307,-0.7079157488630303,0.0006874572753440619,-0.0006094403087627231,-0.0004895776254124887,0.0,-0.011964112999997951,9.80665,1.0
74,220.787,1.0,-0.0008881499264821341,0.0006521481747993771,-0.7062929011881057,-0.7079188679380213,0.0006751105342991656,-0.0005740768993273396,-0.000510653216857462,0.0,-0.015376827199998638,9.80665,1.0
75,220.913,1.0,-0.0008897869154353883,0.0006522471932703569,-0.7062882505800974,-0.7079235057024121,0.0006587261431850492,-0.0005344986631534997,-0.000539810857269913,0.0,-0.018907221199998773,9.80665,1.0
76,220.98,1.0,-0.000891811623118372,0.0006528802823829196,-0.706285390285794,-0.7079263562145445,0.0006547902571037424,-0.0005505830131005447,-0.0005509583069942856,0.0,-0.016279038999999603,9.80665,1.0
77,221.098,1.0,-0.0008953775262018372,0.0006539952751483291,-0.7062803527525432,-0.7079313765194939,0.0006478583980351685,-0.0005789106742013254,-0.0005705911288969223,0.0,-0.011650300199998683,9.80665,1.0
78,221.18,1.0,-0.0008980538976064459,0.0006548776753674705,-0.7062768487173197,-0.7079348681637576,0.0006435448257252575,-0.0005854826816357678,-0.000582488394575193,0.0,-0.0098066499999988,9.80665,1.0
79,221.3,1.0,-0.0009023603687198895,0.0006563803939888109,-0.7062717142254964,-0.7079399836995588,0.0006382217025384307,-0.000569330530706793,-0.000596468095900491,0.0,-0.0098066499999988,9.80665,1.0
80,221.38,1.0,-0.0009052313494621845,0.0006573822064030375,-0.7062682912309476,-0.7079433940567597,0.0006346729537472136,-0.0005585624300874791,-0.0006057878967840206,0.0,-0.0098066499999988,9.80665,1.0
81,221.5,1.0,-0.000907598870372854,0.0006575111147983237,-0.7062632271730165,-0.7079484429155034,0.0006369474134499602,-0.0005878558454349414,-0.0006116594558702705,0.0,-0.013860580118108791,9.80665,1.0
82,221.608,1.0,-0.0009094803455949567,0.0006574504996107312,-0.7062586785766647,-0.7079529783156083,0.0006399712592682354,-0.0006200629206260628,-0.0006159013836171595,0.0,-0.018030336811022486,9.80665,1.0
83,221.7,1.0,-0.0009105578030816439,0.0006572781690860329,-0.7062545384519092,-0.7079571072745158,0.0006472163867945169,-0.0006057293285266552,-0.0006247366245295236,0.0,-0.017596609879031465,9.80665,1.0
84,221.78,1.0,-0.0009111275187600179,0.0006570439428844914,-0.7062507528161334,-0.7079608832535675,0.0006567806002191995,-0.0005640660310746145,-0.0006360697687693668,0.0,-0.01443317439515988,9.80665,1.0
85,221.9,1.0,-0.0009120550595358091,0.0006566725572311736,-0.7062450712878138,-0.7079665502085214,0.000670261410379174,-0.0005051650258387167,-0.0006529790207642673,0.0,-0.00992480240963792,9.80665,1.0
86,221.984,1.0,-0.0009146963442285437,0.0006558653218914088,-0.7062410102798858,-0.707970598605061,0.0006560695551178689,-0.0005620489098939682,-0.0006623458199999709,0.0,-0.013233069879517627,9.80665,1.0
87,222.1,1.0,-0.000918343832613748,0.0006547505683269717,-0.7062354022213186,-0.7079761892479013,0.0006364712788046413,-0.000640602845017874,-0.0006752809237064165,0.0,-0.01780162971887457,9.80665,1.0
88,222.185,1.0,-0.0009206314806653063,0.0006543625377078917,-0.7062316558680488,-0.7079799237749438,0.0006392917749472005,-0.0006682976449374097,-0.0006672966545447653,-0.0015298374000006153,-0.0196132999999988,9.80665,1.0
89,222.3,1.0,-0.0009231120313837091,0.0006545218475879415,-0.7062271665394021,-0.7079843985959259,0.0006705252630636163,-0.0006581071750260868,-0.0006286280318163251,-0.006040896400000972,-0.0196132999999988,9.80665,1.0
90,222.4,1.0,-0.0009252295842885845,0.0006546533517922154,-0.7062232286239976,-0.7079883238631306,0.0006957315327599603,-0.0006496590641327206,-0.0005973114040680274,-0.00964974359999925,-0.0196132999999988,9.80665,1.0
91,222.5,1.0,-0.0009264003919177236,0.0006546162289675941,-0.706218471075862,-0.7079930679749296,0.0006740589579567284,-0.0006511269682087007,-0.0006213930542580815,-0.005727083599999474,-0.0196132999999988,9.80665,1.0
92,222.584,1.0,-0.0009273838703262006,0.0006545850457949122,-0.706214474735428,-0.7079970530288405,0.0006558539951220119,-0.0006523600076325241,-0.0006416216404177287,-0.002432049199999349,-0.0196132999999988,9.80665,1.0
93,222.701,1.0,-0.0009302098239181562,0.0006545024811954287,-0.7062090988566397,-0.7080024116983984,0.0006647462366646053,-0.0006695486214642702,-0.0006255458727798046,0.0,-0.017464432470118096,9.80665,1.0
94,222.785,1.0,-0.0009334171773799507,0.0006544115344745136,-0.7062053933891613,-0.708006103605678,0.0006988490727615101,-0.0006944103508749888,-0.0005781906578073837,0.0,-0.014182525697209668,9.80665,1.0
95,222.9,1.0,-0.0009377940616794747,0.0006542668731854583,-0.7062003146423,-0.7080111638048393,0.0007441180922281751,-0.0007264670580681586,-0.0005162777442271957,0.0,-0.00992480240963792,9.80665,1.0
96,222.98,1.0,-0.0009404717421363095,0.0006536428999987468,-0.7061966313474514,-0.7080148346347581,0.0007387466612271965,-0.0006973399819495778,-0.0005490076922190685,0.0,-0.013075533333332133,9.80665,1.0
97,223.084,1.0,-0.0009439527267301957,0.0006528317348560217,-0.7061918430641481,-0.7080196067136526,0.000731763800925922,-0.0006594747829954103,-0.0005915566246085171,0.0,-0.017171483534135952,9.80665,1.0
98,223.18,1.0,-0.0009479567495922802,0.0006515674579586306,-0.7061873669784715,-0.7080240670323799,0.000724119228310881,-0.0006412885277532069,-0.000615811843890696,0.0,-0.0196132999999988,9.80665,1.0
99,223.294,1.0,-0.0009544239712956973,0.0006489498245687307,-0.706181930076494,-0.7080294834591907,0.0007124452474527035,-0.0006559986476786467,-0.0006120884348638346,0.0,-0.0196132999999988,9.80665,1.0
100,223.38,0.9878048780487805,-0.0009593027525807302,0.0006469751186781048,-0.7061778285539496,-0.7080335695355567,0.0007036385601386419,-0.0006670957556925727,-0.0006092795473523434,0.0,-0.0196132999999988,9.80665,1.0
101,223.489,1.0,-0.0009604645769778551,0.0006474808508976882,-0.7061723450452628,-0.708039036560277,0.0006948298928327845,-0.0006437851069495034,-0.0006086156112141905,0.0,-0.015965226199998104,9.80665,1.0
102,223.58,0.9938271604938271,-0.0009607132556701399,0.0006483351934992397,-0.7061677261252632,-0.7080436421627115,0.0006878138771280627,-0.0006189555837772717,-0.0006084772986359893,0.0,-0.012395605599997783,9.80665,1.0
103,223.682,1.0,-0.0009608546594208337,0.0006495858975075261,-0.7061626721458458,-0.7080486813967678,0.0006879505207649911,-0.0006015004375556776,-0.0006111615852183514,0.0,-0.0098066499999988,9.80665,1.0
104,223.78,1.0,-0.0009607486108454337,0.0006513038127697561,-0.7061580334969183,-0.7080533061991998,0.0007021746286808191,-0.0006030060425232424,-0.0006187418884837095,0.0,-0.0098066499999988,9.80665,1.0
105,223.9,1.0,-0.0009606934976179382,0.0006533988749458866,-0.7061523604370263,-0.7080589622209504,0.0007182309087236005,-0.0006048399899377529,-0.0006282189997762762,0.0,-0.010002001593624138,9.80665,1.0
106,223.98,1.0,-0.0009618028020875598,0.0006546651342282299,-0.7061486844790266,-0.7080626255437058,0.0007080665060905273,-0.0006059146471380949,-0.0006375287191485934,0.0,-0.01312762709163178,9.80665,1.0
107,224.088,1.0,-0.0009633003631215492,0.0006563745842593937,-0.7061437219357269,-0.7080675710294255,0.0006943445625358753,-0.000607365434358557,-0.0006500968403012244,0.0,-0.017347221513943092,9.80665,1.0
108,224.18,1.0,-0.000105994360489379,0.0005037300858386914,-0.706145529866234,-0.7080631309452552,-0.001570289475844654,0.0046693829074533405,-0.0005078541808760774,0.0,-0.018279595599998005,9.80665,1.0
109,224.3,0.8263473053892215,0.0029226300455300358,-3.825533675065856e-05,-0.7061613169252586,-0.7080380862634862,-0.00953710658103392,0.023295950442556414,1.800066372390234e-05,0.0,-0.013572403599997828,9.80665,1.0
110,224.38,0.7878787878787878,0.0049417129828758346,-0.00039957895181013954,-0.706171841631275,-0.7080213898089734,-0.014848317984492175,0.03571366213262219,0.0003685705601238059,0.0,-0.010434275599998452,9.80665,1.0
111,224.528,0.8198757763975155,0.005074922070944838,-0.0007547906101520756,-0.7061631815403197,-0.7080304350075702,0.0029358406152044034,0.004616882474649524,0.00103338419770201,0.0,-0.004669833333332026,10.674772016666667,1.0
112,224.615,0.8509316770186336,0.004896567128158436,-0.0009412783629832858,-0.7061560864054879,-0.708038597512013,0.015357332104552972,-0.017515602477253256,0.0014253453361259194,0.0,-0.0012842041666647364,11.246943345833428,1.0
113,224.7,0.7277777777777777,0.003891595319280383,-0.0008293018231119341,-0.7061503648717254,-0.7080482856686873,0.02007578314846778,-0.026297249229078744,0.0002988460225926239,0.0,1.404935106551722e-15,11.472165750401606,1.0
114,224.78,0.7810650887573964,0.0024495646515444443,-0.0005482044789520994,-0.7061457029090751,-0.7080584272599171,0.020086322877421438,-0.026891966541129478,-0.0016629604821891866,0.0,1.4064785195679931e-15,11.484768674096387,1.0
115,224.9,0.7692307692307693,0.00030467720269487623,-0.00013102927012358993,-0.7061395153790391,-0.7080725707875095,0.019973280228673798,-0.02759340692683974,-0.004449932714923821,0.0,1.408317824152144e-15,11.499787735799984,1.0
116,224.98,0.6863905325443787,-0.0006531253916007317,3.084654307159516e-05,-0.7061563311214434,-0.7080542094653445,0.016547760166227887,-0.023104508709162565,-0.00225873856805269,0.0,1.3971728387616535e-15,11.4087820238,1.0
117,225.1,0.7514792899408284,-0.002089829283044484,0.0002736602628644303,-0.7061815547350498,-0.7080266674820967,0.0114094800725578,-0.016371161382645202,0.0010280526522547838,0.0,1.380455360675914e-15,11.272273455799997,1.0
118,225.18,0.7298850574712644,-0.0028492054069026553,0.0003587981982410632,-0.7061954309775604,-0.7080109550571023,0.00915355626381473,-0.01273161188575828,0.0017712075678427053,0.0,1.3699285700764245e-15,11.186315687349381,1.0
119,225.3,0.7660818713450293,-0.0035643584967548023,0.00032256508960271037,-0.7062099655006442,-0.707993045427203,0.008268353456339394,-0.009086805362119036,-0.0002075984165165975,0.0,1.3554590730488834e-15,11.06816327771082,1.0
120,225.38,0.695906432748538,-0.004041127223322788,0.00029840968384381417,-0.7062196551827001,-0.7079811056739367,0.0076782182513559765,-0.006656934346360115,-0.001526802406089154,0.0,1.3458127416971916e-15,10.989395004618466,1.0
121,225.5,0.726775956284153,-0.0045145644654829365,0.0002460302906122946,-0.7062365713328476,-0.7079613399757522,0.007081263955682454,-0.0052695520818232325,-1.1394266038903004e-05,0.0,1.325897774865643e-15,10.82677695959998,1.0
122,225.596,0.6885245901639344,-0.004863564616418214,0.00020213954100022896,-0.7062503973762965,-0.7079452989780308,0.006639177259057682,-0.004437483102083058,0.0016309893690052573,0.0,1.3092955897322188e-15,10.691209829999975,1.0
123,225.704,0.6615384615384615,-0.005142744288785665,0.00015464958977285566,-0.7062511776448019,-0.7079426309230059,0.0055457018613812165,-0.003156358144711394,0.0018910907427778165,0.0,1.293404377804741e-15,10.561448237199977,1.0
124,225.792,0.5181347150259067,-0.005290536890805281,0.00011727965269028672,-0.70624143574774,-0.7079512589153053,0.004235985860228315,-0.0018701081215401782,0.0009878666787406754,0.0,1.2824131163506698e-15,10.471697776399985,1.0
125,225.904,0.49222797927461137,-0.005460034208890822,6.97392832172371e-05,-0.7062294281672427,-0.7079619882346841,0.002638691551983296,-0.0002867243825457217,-2.4166806135258866e-05,0.0,1.2686932550251332e-15,10.359666606799994,1.0
126,225.986,0.6158536585365854,-0.005407075881166561,3.5136324868699986e-05,-0.706224360265646,-0.7079674473970544,0.0021318482700735117,0.0003617938887328179,0.0005438178405165907,0.0,1.2612088208706566e-15,10.298551563999998,1.0
127,226.1,0.6524390243902439,-0.00533345088896453,-1.2970226981710845e-05,-0.7062173146463528,-0.7079750369642522,0.0014272124879061699,0.001263392460998209,0.0013334550322033998,0.0,1.2508036319241876e-15,10.213586748399996,1.0
128,226.18,0.6645161290322581,-0.005243138664263727,-5.5691994475649005e-05,-0.7062171175891276,-0.7079758910857743,0.0006659142412242435,0.0018897541165353432,0.0012100256336850276,0.0,1.2425217548495268e-15,10.145960089999981,1.0
129,226.3,0.726027397260274,-0.005029242565979056,-0.00013796382448150125,-0.7062264561019389,-0.7079680969607718,-0.0010175146795812747,0.002816431961953831,-0.00035016824398222015,0.0,1.2281101358100962e-15,10.028280289999977,1.0
130,226.38,0.589041095890411,-0.004886645167122642,-0.00019281171115205644,-0.7062326817771464,-0.7079629008774367,-0.0021398006267846874,0.0034342171922326775,-0.0013902974957601393,0.0,1.2185023897838114e-15,9.949827089999992,1.0
131,226.5,0.44025157232704404,-0.004603708165417215,-0.0002258403762863904,-0.7075245377552345,-0.7066703236712795,-0.002949658108668248,0.003464317754916247,-0.0009960960726149663,0.0,1.2022073475154184e-15,9.816767972222213,1.0
132,226.594,0.3854166666666667,-0.004373753866746005,-0.0002457783979519762,-0.7086910514018341,-0.7055029720269328,-0.003478769911453128,0.003379847471868353,-0.0004517752677202229,0.0,1.1892159210929705e-15,9.710684925,1.0
133,226.7,0.37073170731707317,-0.004092473531029256,-0.00025141800391037777,-0.7093564044827382,-0.7048379924878758,-0.003689537369345715,0.003444440865648838,-8.427603226619947e-06,0.0,1.1749537312832128e-15,9.594225307258071,1.0
134,226.78,0.3953488372093023,-0.0038629674847259522,-0.00024247315595862397,-0.709349063282879,-0.70484664898744,-0.003546167544329581,0.0036184699049279794,0.0001925766029613221,0.0,1.1644936852062051e-15,9.508812549193538,1.0
135,226.9,0.3767441860465116,-0.0035229209053959745,-0.00023319880545758892,-0.7093381159283972,-0.7048595376677244,-0.0032365367766464858,0.003862826159223876,0.0004997750574257971,0.0,1.148769369125021e-15,9.380413764399979,1.0
136,226.985,0.3138075313807531,-0.003368586146353247,-0.00031173198482356286,-0.7093316853663174,-0.7048666937309452,-0.0010744656966992293,0.0036931267902254516,0.0008343001116301062,0.0,1.1369278221476215e-15,9.28372019539997,1.0
137,227.114,0.319672131147541,-0.003134360453217853,-0.0004309176335083742,-0.7093219260426905,-0.7048775541092451,0.0022067951187495927,0.003435583041980827,0.0013419910762459734,0.0,1.1189565332054534e-15,9.13697348479998,1.0
138,227.18,0.32098765432098764,-0.002956852566311651,-0.0004784192949800918,-0.7093171933841373,-0.7048830077420026,0.0015577406212678785,0.0036585056856276313,0.0011425882349720147,0.0,1.108455266798721e-15,9.051224137199972,1.0
139,227.3,0.3374485596707819,-0.0025354217802497506,-0.0005417236334736118,-0.709309034298028,-0.7048927474552753,-0.0036058264449249445,0.00467077438533327,-5.676536355405217e-06,0.0,1.0871260706203635e-15,8.877058033199964,1.0
140,227.385,0.461864406779661,-0.0022369083067893206,-0.000586564206573176,-0.7093032549453673,-0.7048996464188435,-0.007263353116810508,0.005387798047624565,-0.0008190307493787675,0.0,1.0720178899940313e-15,8.753690376199993,1.0
141,227.5,0.5170940170940171,-0.0018297902326096052,-0.000505865348885994,-0.7092966214784534,-0.7049074389517367,-0.006229449771344467,0.004218460239469842,-0.0012350149457343329,0.0,1.062568671777178e-15,8.676531653999993,1.0
142,227.594,0.543778801843318,-0.0014967347483180525,-0.0004276810699826688,-0.7092913018461016,-0.7049136752424027,-0.004867145437747132,0.003077689701691179,-0.0015158639810979595,0.0,1.0557952108286463e-15,8.621222147999996,1.0
143,227.702,0.7109004739336493,-0.0012010782511507891,-0.00035538383376027954,-0.7092817865174065,-0.7049239192676462,-0.003977270872959196,0.001893156401968765,-0.0016998669231844848,0.0,1.0517802447700923e-15,8.588437462151395,1.0
144,227.788,0.6421052631578947,-0.0010299796574295885,-0.00031077692601595214,-0.709271692953331,-0.7049343531597834,-0.003768015363479938,0.0010431865406446837,-0.0017438492365738124,0.0,1.0513687576394842e-15,8.585077414741036,1.0
145,227.903,0.7263157894736842,-0.0008095373103714465,-0.0002517885176454535,-0.7092607198870506,-0.704945750706906,-0.0033922239877283533,-7.652766630053702e-05,-0.0017356672296300506,0.0,1.051538979339002e-15,8.5864673804,1.0
146,228.0,0.6720430107526881,-0.0007515826054385765,-0.00021215195360265848,-0.709290142239877,-0.7049162173668476,-0.001604640354402204,-0.0007624279968441145,-0.0007021802114321862,0.0,1.0627223957136006e-15,8.677786905200009,1.0
147,228.1,0.7403314917127072,-0.0006918354869510903,-0.0001712895164451437,-0.7093204745623783,-0.7048857706245195,0.0002382293706760354,-0.0014695417396724433,0.0003632703227922636,0.0,1.0742516909451439e-15,8.771930745200002,1.0
148,228.19,0.7403314917127072,-0.000664828141551507,-0.00012473685387097517,-0.7093367285236485,-0.7048694520031362,0.0005806309897451817,-0.0015749917135107925,0.0010449389466084809,0.0,1.0850411897326643e-15,8.860033688800007,1.0
149,228.3,0.7241379310344828,-0.0006675750725247359,-5.477860079853409e-05,-0.7093418390972855,-0.7048643135897922,-0.0007591873053463751,-0.0009945665185804352,0.0015077239698731253,0.0,1.098780266550256e-15,8.97222176480002,1.0
150,228.42,0.6954022988505747,-0.0006793940425457573,6.4451428448740875e-06,-0.7093457500756097,-0.7048603722351287,-0.0016016793943778968,-0.0004695524297843884,0.002202827646675284,0.0,1.1132066608485126e-15,9.09002221394422,1.0
151,228.5,0.6514285714285715,-0.0007120781341792617,4.821783248046828e-06,-0.7093436783593369,-0.7048624236843423,-0.0004226044590298244,-0.00042369295597127944,0.0032011282693343215,0.0,1.121245014097598e-15,9.155660349402396,1.0
152,228.587,0.6629213483146067,-0.0007476220838306876,3.0563796864976787e-06,-0.7093414253678901,-0.7048646546353621,0.0008596395331608429,-0.0003738207781995375,0.00428678019647572,0.0,1.1299867232559761e-15,9.227041821713142,1.0
153,228.729,0.7088607594936709,-0.0008928266202590347,-1.5194587132560783e-05,-0.7093217589730684,-0.7048842549780184,0.0022395185352001245,-0.0011148682896453578,0.001962343197180565,0.0,1.1427574667440463e-15,9.331322856024109,1.0
154,228.784,0.7837837837837838,-0.0009745002055760106,-2.6746729502384333e-05,-0.7093094778728956,-0.7048965017211629,0.0025660110044715655,-0.0016417922996766101,-0.0001328452882995877,0.0,1.1472671266509614e-15,9.368147023694778,1.0
155,228.887,0.6554054054054054,-0.001127452556260602,-4.838074157679148e-05,-0.7092864787216626,-0.7049194365310517,0.0031774423560165547,-0.0026285772639174257,-0.004056561906564287,0.0,1.15571248974937e-15,9.437108646787154,1.0
156,228.98,0.7142857142857143,-0.0012511778288597521,-4.7336259320944515e-05,-0.7092891962012744,-0.7049164805078948,0.003360412526875732,-0.0029374762345105374,-0.0033471710886806456,0.0,1.160918363975263e-15,9.4796178358,1.0
157,229.09,0.815068493150685,-0.0013954706996979398,-4.316835696504612e-05,-0.7092957569815246,-0.7049096118643989,0.0035242302305996598,-0.003219890771433742,-0.0019021498877553546,0.0,1.1667310503211673e-15,9.527082021800005,1.0
158,229.18,0.8226950354609929,-0.0015241071560706484,-2.390343186222059e-05,-0.7092977851914818,-0.7049073041340835,0.003063526460202155,-0.0034117703996598935,-0.0013423400735483454,0.0,1.1710113011758779e-15,9.562032922400006,1.0
159,229.3,0.8723404255319149,-0.0017199853895655728,3.829727316336187e-05,-0.7092927980384582,-0.7049118549553917,0.0010795587294266046,-0.0035773614905774873,-0.0020295178880916187,0.0,1.1756230192684958e-15,9.599690458400007,1.0
160,229.385,0.76,-0.001858732471624439,8.235610588980382e-05,-0.7092892654717333,-0.7049150784538183,-0.00032575174653901896,-0.003694655179977417,-0.002516268840059635,0.0,1.1788896529174324e-15,9.6263645464,1.0
161,229.494,0.8169014084507042,-0.0019924026728541126,0.00011856026864878787,-0.7092980236226674,-0.704905885004852,0.0005919855098867749,-0.0033284713430801,-0.0019680723067325508,0.0,1.1820705271524233e-15,9.652338355642025,1.0
162,229.604,0.8455882352941176,-0.00212177444158422,0.00015256284749628227,-0.7093085210998428,-0.7048949433716492,0.0018577045124163931,-0.0028944329507213373,-0.001268478753887625,0.0,1.185154725779539e-15,9.677522748638136,1.0
163,229.7,0.7862595419847328,-0.0022289965179311533,0.0001648072681488678,-0.7093085093251208,-0.7048946252723822,0.0026217227908993178,-0.0025774131628681046,-0.0011469122286360616,0.0,1.1874660093846996e-15,9.696395811522633,1.0
164,229.78,0.7709923664122137,-0.0023131995212775894,0.00015922240379171937,-0.7093001904464145,-0.7049027215686792,0.002949881850293419,-0.002369187755027284,-0.001488530566415746,0.0,1.1890475313643354e-15,9.70930991851852,1.0
165,229.9,0.7785714285714286,-0.0024387607629432527,0.0001497794242008503,-0.7092882198030176,-0.7049143569543093,0.003448558184318334,-0.0020592485945671543,-0.0019802711568772413,0.0,1.1914037421166709e-15,9.728549839400001,1.0
166,229.98,0.9037037037037037,-0.0025031434101837396,0.00011577634503991398,-0.7092934389153185,-0.7049088783488657,0.003948390441946675,-0.0019149952214211259,-0.0017702383957803288,0.0,1.192556671639825e-15,9.737964223399999,1.0
167,230.1,0.8444444444444444,-0.002599717381044493,6.47717262984974e-05,-0.7093012675837699,-0.7049006604407004,0.004698138828389365,-0.0016986151617020319,-0.0014551892541348854,0.0,1.1942860659245569e-15,9.7520857994,1.0
168,230.185,0.6911764705882353,-0.0026502100156660688,2.7013709965298476e-05,-0.709301535591424,-0.7049002089084665,0.004547969903796784,-0.00146918545430522,-0.001181773545220451,0.0,1.1951459591939094e-15,9.759107360800002,1.0
169,230.3,0.7910447761194029,-0.002688546867700146,-2.6797838521711472e-05,-0.7092930672915658,-0.7049085831735551,0.0032048292923716353,-0.0010313355114775881,-0.0007277612267061277,0.0,1.195698404590421e-15,9.7636184198,1.0
170,230.38,0.8059701492537313,-0.0027152159821586274,-6.423195920831669e-05,-0.7092871763003602,-0.704914408749269,0.0022704706061630964,-0.0007267442469019287,-0.00041192657034842546,0.0,1.1960827144314725e-15,9.7667565478,1.0
171,230.5,0.8814814814814815,-0.0027035279301429313,-2.8880679911835893e-05,-0.7093111389765087,-0.7048903413289017,0.0010447251545264455,-0.0010361980057787465,-0.0008771914159879533,0.0,1.1966591791930497e-15,9.7714637398,1.0
172,230.58,0.8309859154929577,-0.0026900481329871066,4.755071499726974e-06,-0.7093307230633277,-0.704870686684081,0.0002469043927265085,-0.0013268227844965483,-0.0012906902199612158,0.0,1.1970434890341011e-15,9.774601867800001,1.0
173,230.692,0.7703703703703704,-0.002668743895637384,3.211684534921083e-05,-0.7093456443864536,-0.7048557533862148,0.00022994343885260934,-0.0011896996532075794,-0.0011174913710983309,0.0,1.197795974592897e-15,9.78074637868526,1.0
174,230.78,0.8518518518518519,-0.0026491591881620197,3.053642800973515e-05,-0.7093427494805986,-0.7048587404331269,0.0015034284656015031,-0.0004455689477652026,-0.0001015722477043404,0.0,1.1986380877904202e-15,9.787622754780877,1.0
175,230.883,0.8380281690140845,-0.0026262361782760785,2.868662135103039e-05,-0.7093393611248818,-0.7048622366357628,0.0029939848037282783,0.0004254022188322586,0.0010875149080865358,0.0,1.1996237430102485e-15,9.795671240438248,1.0
176,230.98,0.8791946308724832,-0.0025846018083672973,-1.078686870009046e-05,-0.7093285348839325,-0.704873281346418,0.003039312439533073,0.00044776345056156874,0.0007311125869402993,0.0,1.1997672850325534e-15,9.79684335,1.0
177,231.1,0.8194444444444444,-0.0025285587827601538,-6.815872342969554e-05,-0.7093134137262433,-0.7048886992316837,0.002787980231377909,0.0002948670172558914,-4.3868418244366516e-05,0.0,1.1997672850325534e-15,9.79684335,1.0
178,231.185,0.8321678321678322,-0.0024794415417945964,-9.334518234177728e-05,-0.7093087750369867,-0.7048935388526762,0.0020744661166074993,0.00039617514165412075,-0.00037292535722894594,0.0,1.1997672850325534e-15,9.79684335,1.0
179,231.3,0.8088235294117647,-0.0023972254514616938,-0.00010156409860783786,-0.7093126601127696,-0.7048899101464999,0.0002130529151269365,0.0008839947334769724,-0.00045016514340535485,0.0,1.1997672850325534e-15,9.79684335,1.0
180,231.38,0.9485294117647058,-0.002340031649490995,-0.00010728160557553059,-0.7093153627741838,-0.7048873858291598,-0.0010818432250330949,0.0012233474930058187,-0.0005038971685715375,0.0,1.1997672850325534e-15,9.79684335,1.0
181,231.5,0.7938931297709924,-0.002226756825566927,-0.00011682225926468282,-0.7093125053253496,-0.7048906177771681,-0.0019695435746023434,0.0013614516026419004,-0.000728143515845167,0.0,1.1997672850325534e-15,9.79684335,1.0
182,231.58,0.916030534351145,-0.0021480068502879703,-0.00012329615308540598,-0.7093097872487595,-0.704893598106117,-0.002437268059334299,0.001409882770282748,-0.0008945408818147833,0.0,1.1997672850325534e-15,9.79684335,1.0
183,231.7,0.7730496453900709,-0.0020440020022977116,-0.00012481088638835894,-0.7093025280971993,-0.704901216097631,-0.0023650988550074133,0.001078348181746644,-0.0010000071068576367,0.0,1.2000208759386257e-15,9.79891407689243,1.0
184,231.78,0.7555555555555555,-0.001986565408042358,-0.00011891329729869715,-0.7092950069463827,-0.7049089473670943,-0.0016648898583435491,0.0005166943078819315,-0.0009488500216400643,0.0,1.2004036546647726e-15,9.802039702390438,1.0
185,231.9,0.7333333333333333,-0.0019012662532373354,-0.00011045775975690171,-0.7092838251694383,-0.7049204411051492,-0.0006197443721445067,-0.00031224289094565694,-0.0008817593107490367,0.0,1.2009682532858392e-15,9.80665,1.0
186,231.98,0.7692307692307693,-0.0018780591221017279,-0.00012019401437501245,-0.7092803019898463,-0.704924045729013,-0.00012625572734504121,-0.0003321522860376371,-0.0012163989029424327,0.0,1.2009682532858392e-15,9.80665,1.0
187,232.1,0.851063829787234,-0.0018432484253983082,-0.000134798396302182,-0.7092750172204583,-0.7049294526648087,0.0006139772398543323,-0.00036201637867561436,-0.0017183582912326453,0.0,1.2009682532858392e-15,9.80665,1.0
188,232.187,0.8014184397163121,-0.0016648649148401696,-0.00028652396536696324,-0.7092726157038715,-0.704932087739449,0.00036890532588558836,0.005912299894265321,-0.0016145351575686,0.0,1.2009682532858392e-15,9.80665,1.0
189,232.3,0.8439716312056738,-0.0011994480829703022,-0.0006989895578882598,-0.7092716787966429,-0.704933549276139,-0.0011424597662410582,0.02367028673948103,-0.0007658376567995565,0.0,1.2009682532858392e-15,9.80665,1.0
190,232.38,0.8156028368794326,-0.0008699494409386019,-0.0009910005968413332,-0.70927101549949,-0.7049345839923798,-0.0022124527518172362,0.03624231282458705,-0.00016498986864459868,0.0,1.2009682532858392e-15,9.80665,1.0
191,232.486,0.6808510638297872,0.002250191548185461,-0.004082710107831897,-0.7092672397470289,-0.7049005708162167,-0.0019647659659385755,0.07427273860573715,0.0008568126037716637,0.0,1.2013957979840089e-15,9.8101411674,1.0
192,232.586,0.6363636363636364,0.005677295511885539,-0.007486819282229395,-0.7092631557000445,-0.704862106711313,-0.0014309903532265477,0.11400180628896608,0.001861444421112738,0.0,1.2018761852853233e-15,9.8140638274,1.0
193,232.7,0.5447761194029851,0.010611391234983038,-0.012421891208530829,-0.709201420943392,-0.7047737104531849,7.831250503653156e-05,0.13833077508211136,0.002066836082143713,0.0,1.202678432078518e-15,9.8206146696,1.0
194,232.78,0.5597014925373134,0.014903560752329828,-0.01673670680086404,-0.7091119968105739,-0.7046756981450538,0.001865029085427741,0.13847302037477496,0.0014518417462239983,0.0,1.2034470517606212e-15,9.8268909256,1.0
195,232.9,0.46774193548387094,0.021280537465994415,-0.0231489875099642,-0.7089771984924402,-0.7045288641650627,0.004466769446618801,0.13774688050150424,0.0005369162426794901,0.0,1.2045855696647362e-15,9.836187629800001,1.0
196,232.98,0.5247524752475248,0.023938638653885437,-0.025865331651666757,-0.7088701178554504,-0.7044357713824095,0.00416456577647478,0.11283558413386394,0.0001236819156911168,0.0,1.2049698795057877e-15,9.839325757800001,1.0
197,233.1,0.5494505494505495,0.027925790435722915,-0.02993984786422156,-0.7087094968999655,-0.7042961322084299,0.003711260271258641,0.07546863958239464,-0.0004961695747915902,0.0,1.2055463442673649e-15,9.8440329498,1.0
198,233.187,0.6477272727272727,0.030118044562905205,-0.03217041862596766,-0.7086109456659726,-0.704218916975126,0.003334095338359373,0.05684045821428095,-0.0013184302812445218,0.0,1.2061564361400343e-15,9.849014728000002,1.0
199,233.3,0.6818181818181818,0.03189954515691578,-0.033963498610216886,-0.7085102588246466,-0.7041552888687519,0.002770168056711455,0.045560813039539245,-0.0029554769298996003,0.0,1.2072421114410046e-15,9.857879939600002,1.0
200,233.38,0.7,0.033160784515507094,-0.035232935767207235,-0.7084389761051236,-0.7041102424217613,0.002370927503332475,0.03757522353529889,-0.004114448008593236,0.0,1.2080107311231073e-15,9.8641561956,1.0
201,233.493,0.775,0.03447723676813019,-0.036561726522987247,-0.7083724439193043,-0.7040450761843803,0.001458836460486023,0.030614984154701035,-0.0023672776706516025,0.0,1.208635234614816e-15,9.8692556536,1.0
202,233.586,0.7093023255813954,0.03549291194177398,-0.037587667027909485,-0.7083226650803811,-0.7039912196253407,0.0006574356735216474,0.025516160719095488,-0.0004361213438674122,0.0,1.2090819948050385e-15,9.8729037274,1.0
203,233.7,0.75,0.03607088870660987,-0.0381897905089127,-0.7083031413201375,-0.7039510226917353,0.0006392503939234699,0.012560552520403553,0.0006329375091918025,-0.0020707268924301326,1.2098822128709848e-15,9.87943800378486,1.0
204,233.78,0.717948717948718,0.03593772828522619,-0.038082914679057965,-0.7083229554726498,-0.703943669237097,0.0014052348451659897,-0.0019469473036056346,0.0003346528656654296,-0.00519635239043853,1.2106477703232784e-15,9.885689254780877,1.0
205,233.9,0.717948717948718,0.035724778981868474,-0.037908930571016596,-0.7083528100606291,-0.7039338622455401,0.0025373766608536353,-0.02326201234012802,-8.808715455225539e-05,-0.00980665,1.2117769675654117e-15,9.89490985,1.0
206,233.98,0.7971014492753623,0.035063271709197916,-0.03725524021079355,-0.7083779585815727,-0.7039754364069237,0.0026299666650593206,-0.01992212418466833,0.0006011060047894192,-0.00980665,1.2117769675654117e-15,9.89490985,1.0
207,234.096,0.7391304347826086,0.0341040861638253,-0.03630738918846983,-0.7084144239369411,-0.7040357189409301,0.0027642221711576074,-0.015079286359250233,0.0016004360858351656,-0.00980665,1.2117769675654117e-15,9.89490985,1.0
208,234.18,0.7721518987341772,0.03369254819765544,-0.035921051262001125,-0.7078245715558134,-0.7046657880343328,0.002148680243640912,-0.010019765503703584,-0.003980602143334374,-0.00855139879999958,1.2117769675654117e-15,9.89490985,1.0
209,234.3,0.6575342465753424,0.03376170480165303,-0.036065654290787175,-0.7055513256067846,-0.70692721011622,-0.00038529011979731307,0.0008124603256596929,-0.02658940382860888,-0.003844206799999403,1.2117769675654117e-15,9.89490985,1.0
210,234.38,0.7049180327868853,0.033807809204318084,-0.036162056309977854,-0.7040358283074325,-0.7084348248374777,-0.0020746036954223963,0.008033944211900165,-0.04166193828545498,-0.0007060788000000269,1.2117769675654117e-15,9.89490985,1.0
211,234.5,0.6885245901639344,0.034361511515485305,-0.03643682860789498,-0.7029183954291418,-0.7095035024202967,-0.0024424356559897397,0.010004922725170508,-0.028601576248743946,-0.004017181927711073,0.004017181927712284,9.89490985,1.0
212,234.58,0.746268656716418,0.034787651766910906,-0.03663532417150224,-0.7023094181852702,-0.7100756312599328,-0.0024328171509321772,0.010276408716437873,-0.01569829602168186,-0.007167912851406405,0.007167912851407615,9.89490985,1.0
213,234.7,0.6865671641791045,0.03529737977617712,-0.03692107580057632,-0.7017530437445441,-0.7105866882477146,-0.0016578414453386407,0.009022705720752491,-0.0033779527810920977,-0.011869159722222038,0.009806650000001211,9.896972359722222,1.0
214,234.78,0.7307692307692307,0.03552807494402237,-0.03710147066027913,-0.7016830724253235,-0.7106348378093551,-0.0005002260376284662,0.006787124568492869,-0.001092902138932577,-0.01498238194444463,0.009806650000001213,9.900085581944444,1.0
215,234.9,0.64,0.03587133681234479,-0.03737128022555611,-0.7015798693842104,-0.7107055090036435,0.0012299860406846921,0.0034490244698721357,0.002291760916997381,-0.019573915863453625,0.009806650000001213,9.904755884136545,1.0
216,234.98,0.7,0.03587956130455929,-0.03748905714308337,-0.7016502130824144,-0.710629406711498,0.0018907187882450977,0.002435173699071371,0.0011437789744597898,-0.016423184939759413,0.009806650000001213,9.90790661506024,1.0
217,235.1,0.5681818181818182,0.035891898042881044,-0.03766572251937431,-0.7017557286297206,-0.7105152532732796,0.0028818179095859405,0.000914397542869864,-0.0005781939393470054,-0.011697088554216976,0.009806650000001214,9.912632711445784,1.0
218,235.18,0.45454545454545453,0.035879379277320905,-0.037772660207540464,-0.7018364293496702,-0.7104304968725439,0.0029701863689021966,0.00020120629952064304,-0.001087164177396651,-0.011051938888889258,0.008561361111111956,9.91452315,1.0
219,235.3,0.42857142857142855,0.03581392879898775,-0.03790867847372708,-0.7019807837285217,-0.7102838905271126,0.001814919409327236,-0.0001920966287365582,-0.00041284319937282964,-0.01572177222222259,0.0038915277777786233,9.91452315,1.0
220,235.38,0.2647058823529412,0.03577029514676567,-0.03799935731785147,-0.7020770199810894,-0.7101861529634919,0.0010447414362774448,-0.0004542985809079636,3.6704119309611486e-05,-0.018834994444444076,0.0007783055555571385,9.91452315,1.0
221,235.5,0.26666666666666666,0.035309598502595456,-0.03773338104117856,-0.7022512623484981,-0.710050782984533,0.0017045504984355584,-0.010861909233837109,0.0005125822302239384,-0.0196133,0.007908588709678489,9.91452315,1.0
222,235.58,0.5384615384615384,0.034949767917703635,-0.037502464251015284,-0.7023714089919115,-0.70996203451409,0.0023864333427722627,-0.01913555736574787,0.0008033752552189096,-0.0196133,0.014235459677421658,9.91452315,1.0
223,235.687,1.0,0.03406207718377755,-0.03676609067521853,-0.7025330202630726,-0.7098816606757364,0.003040816977126443,-0.02939858534429583,0.0008652633629704878,-0.021149281325301854,0.01807731867469936,9.91452315,1.0
224,235.782,0.8333333333333334,0.032644787440368535,-0.03545047634457768,-0.702677923578577,-0.7098696330948309,0.0032229812228566283,-0.03726757435225481,0.0004139257595877342,-0.02489077429718943,0.014335825702811784,9.91452315,1.0
225,235.897,0.8333333333333334,0.030929120908873675,-0.03385789057590742,-0.70285333285524,-0.7098550733916292,0.003443495836108923,-0.046793192625045776,-0.00013243028661235595,-0.02941995,0.009806650000001214,9.91452315,1.0
226,235.98,0.8571428571428571,0.029431552297231794,-0.03255260032721567,-0.7029757552838777,-0.7098528955110142,0.0037960145522707074,-0.047811169295556906,-0.00019922379024569752,-0.03264991805555537,0.013036618055556585,9.904833245833334,1.0
227,236.1,0.5454545454545454,0.027266392858713285,-0.030665433702600983,-0.7031527515662455,-0.7098497467679563,0.004305680165998618,-0.04928294279509115,-0.00029579271116137763,-0.037319751388888704,0.01770645138888992,9.890823745833334,1.0
228,236.181,0.6666666666666666,0.02581175780668952,-0.029377495540160576,-0.703254221893147,-0.7098592722805032,0.00424264605160808,-0.04944796860218033,-0.0004985796135241106,-0.0392266,0.02087359236947957,9.8851032,1.0
229,236.3,0.3333333333333333,0.02369010576062337,-0.027453618360077963,-0.7033627976602479,-0.7098994766138207,0.00323431601328951,-0.04782678559422475,-0.001106054506201105,-0.0392266,0.02556030461847563,9.8851032,1.0
230,236.38,0.4444444444444444,0.022263785057385903,-0.026160255549938644,-0.7034357897725847,-0.7099265047370594,0.002556447079966235,-0.046736914664506926,-0.0015144409886729535,-0.0392266,0.028711035542169847,9.8851032,1.0
231,236.5,0.75,0.020289841197213006,-0.024275136857627628,-0.7035143478257285,-0.7099710858393828,0.002067379863932716,-0.04545166975259777,0.000544745557010261,-0.03522548679999985,0.02541883680000106,9.8730998604,1.0
232,236.58,0.75,0.018993353587844698,-0.023024852888976814,-0.7035630810240565,-0.7100012817410257,0.001803421663120335,-0.04463596469163878,0.0022318620309237174,-0.032087358799999355,0.022280708800000566,9.863685476399999,1.0
233,236.699,0.2,0.017155005195249037,-0.021240614194353146,-0.7036422698497343,-0.7100267072169036,0.00143127285841054,-0.04307120936028485,0.003040600535125695,-0.02941995,0.019613300000001208,9.851698077490038,1.0
234,236.778,0.3333333333333333,0.01601440950807303,-0.020123000696698874,-0.7037007695156329,-0.710026333840414,0.0012023520272826439,-0.041721384334136885,0.0020719823117676802,-0.02941995,0.019613300000001208,9.845524967131475,1.0
235,236.884,0.10344827586206896,0.01448398997844414,-0.018623418028959914,-0.703779262738231,-0.710025832854238,0.0008951924310856552,-0.03991022670411518,0.0007723173538439943,-0.02941995,0.019613300000001208,9.837242059561754,1.0
236,236.971,0.2,0.013390929696498386,-0.0175548091295893,-0.703830192776581,-0.710022447459404,0.0007178023708591453,-0.037341350667088734,0.0004807120281641906,-0.02941995,0.02244895783132667,9.833234292168676,1.0
237,237.085,0.20930232558139536,0.012003151518908713,-0.01619883643853083,-0.7038932450790941,-0.7100171995001778,0.0005057559114409391,-0.03367976543594522,0.00031020211235405714,-0.02941995,0.02693874939759198,9.82874450060241,1.0
238,237.173,0.2,0.01098597751435426,-0.01520497351660217,-0.7039385866583523,-0.7100123101762136,0.0005519550177269056,-0.0311058025807141,0.0005076266999822811,-0.030400615000000224,0.0294199500000012,9.825282635,1.0
239,237.282,0.1875,0.009894913852920207,-0.014138911692606131,-0.7039843530802842,-0.7100036375433809,0.0012643034849316834,-0.02870581778883902,0.0017792370570825283,-0.034676314400000574,0.0294199500000012,9.8210069356,1.0
240,237.367,0.875,0.009044084392169156,-0.013307579077563615,-0.7040200424918823,-0.7099968744810802,0.0018198045832104595,-0.026834270015359055,0.002770859812619099,-0.03801057539999977,0.0294199500000012,9.817672674599999,1.0
241,237.471,0.6111111111111112,0.008189071902282182,-0.012433289954368099,-0.7040581378195415,-0.7099851963364922,0.001804616364650406,-0.02481351162493215,0.002708517695311416,-0.03636305819999971,0.0294199500000012,9.8135931082,1.0
242,237.58,0.6666666666666666,0.007375737821553149,-0.011580555736773177,-0.7040955848282396,-0.7099714420057759,0.001479433922097038,-0.022815386474132237,0.002075432601384726,-0.032087358799999355,0.0294199500000012,9.809317408799998,1.0
243,237.691,0.6086956521739131,0.006588506330068044,-0.010764793470842266,-0.7041324285380135,-0.7099559621198358,0.00126808111835271,-0.020940720602869896,0.002095334596466337,-0.03110669380000025,0.0294199500000012,9.8083367438,1.0
244,237.768,0.7391304347826086,0.006087414659204328,-0.010256626981695232,-0.7041565712131977,-0.7099436077338609,0.0012528840173035851,-0.019815931320190362,0.0028382129827514754,-0.03412714200000018,0.0294199500000012,9.811357192,1.0
245,237.874,0.2641509433962264,0.005397600151262089,-0.009557073113518815,-0.7041898065842305,-0.709926600397324,0.0012319633327424527,-0.018267520099878323,0.0038608767352998194,-0.038285161599999964,0.0294199500000012,9.8155152116,1.0
246,237.979,0.4406779661016949,0.004844860339709155,-0.00900769850810941,-0.7042081804831075,-0.7099194098099116,0.002117436423367802,-0.01646438020506019,0.0026295727994033024,-0.036086921541501484,0.0294199500000012,9.8133169715415,1.0
247,238.063,0.41935483870967744,0.004433617708209758,-0.008602232529968277,-0.7042194312037688,-0.7099159462413276,0.003040617007923973,-0.014958025604162838,0.0011125427073518774,-0.03283095869565285,0.0294199500000012,9.810061008695651,1.0
248,238.167,0.6129032258064516,0.0039496015946062744,-0.00812775423078271,-0.7042321135409044,-0.7099122438648253,0.0038386098210991025,-0.012990866410678167,-0.00045914014166048296,-0.030055198582995636,0.02814945283400993,9.807285248582994,1.0
249,238.269,0.5333333333333333,0.0036105121593277916,-0.0078108885703471725,-0.704237824698584,-0.7099117729048087,0.0027602865296577923,-0.01051052335106767,-0.00034702447505086814,-0.03410490829959521,0.02005003340081077,9.811334958299595,1.0
250,238.355,0.5,0.0033246132237008982,-0.0075437273272349155,-0.7042426399883923,-0.709911375820873,0.001851111989815319,-0.008419253712573006,-0.00025249557967415496,-0.03751936943319803,0.013221111133605142,9.814749419433197,1.0
251,238.46,0.6285714285714286,0.0030674427118267808,-0.007247910520466892,-0.7042566626630904,-0.7099017478730921,0.0010338781843892539,-0.007087465018033927,-0.0005877412473783617,-0.0392266,0.01467074840000213,9.814024600799998,1.0
252,238.58,0.46153846153846156,0.002846369723322382,-0.006933905000702068,-0.7042791433659175,-0.709883497410228,0.00033198166405772533,-0.006533618807792588,-0.0013280834062025953,-0.0392266,0.024085132400002485,9.809317408799998,1.0
253,238.66,0.47368421052631576,0.002705722835947041,-0.006740614396157339,-0.7042946870274454,-0.7098705708190433,-1.5660831231652624e-05,-0.0061237007839627456,-0.0014387942174360446,-0.038288912350597594,0.028951106175299997,9.80665,1.0
254,238.763,0.3611111111111111,0.0025737781717284,-0.006608824665781895,-0.7043187598148642,-0.709848385801582,0.00041435443725721803,-0.00529908417423521,0.0012118799864238362,-0.030240426693226553,0.024926863346614477,9.80665,1.0
255,238.867,0.5416666666666666,0.0024405524913523264,-0.006475755423461088,-0.7043430663186657,-0.7098259853956018,0.000848544611265299,-0.004466461578005656,0.003888288891291455,-0.022113800398407164,0.020863550199204783,9.80665,1.0
256,238.977,0.46236559139784944,0.002328481967984192,-0.006395204556097456,-0.7043522535153673,-0.7098179823442987,0.0016663846552312416,-0.004483298158213036,0.0034547856752571993,-0.025781999193548857,0.02269764959677563,9.80665,1.0
257,239.06,0.509090909090909,0.002252847679197865,-0.006353059193735693,-0.704354071292467,-0.7098168005320988,0.0023944894576656186,-0.004773828110867957,0.0021171942289876142,-0.03234612782258124,0.02597971391129182,9.80665,1.0
258,239.148,0.32098765432098764,0.0031863633912252295,-0.007272531064467107,-0.7041861933907987,-0.709616122889868,0.0002788989581030241,0.018301044736169152,0.001157644874651233,-0.039265826600000185,0.029380723400001012,9.80665,1.0
259,239.26,0.17482517482517482,0.11661940638995864,-0.11520114457204549,-0.6851704657527529,-0.6872789688646346,-0.32214498632773625,2.6367943199612096,0.05071812986885145,-0.04365920579999998,0.02498734420000122,9.80665,1.0
260,239.364,0.1958041958041958,0.2219500891745153,-0.21542057140052873,-0.6675130043745642,-0.6665373258412,-0.6215385940932111,5.068252361242031,0.09673858022061688,-0.04773877220000051,0.020907777800000693,9.80665,1.0
261,239.468,0.19786096256684493,0.31244925888451475,-0.31984418701592515,-0.6222075040820874,-0.6190571989806721,-0.5152585021834879,5.150188072204609,0.07604293091222683,-6.905921383199802,-3.4645325385998986,5.626232011400121,1.0
262,239.54,0.2852233676975945,0.37033009318740323,-0.3934902698414631,-0.5819456598302547,-0.577582517763446,-0.3111435861121844,4.4508909835815365,0.04024747965857298,-13.859385405600065,-6.997750853800033,1.3869348961999606,1.0
263,239.658,0.36904761904761907,0.4628380469597405,-0.5092010020207719,-0.5141043348159458,-0.507351830945149,-0.00742914539180244,3.2621992056776246,-0.01241850585048798,-23.438753047012263,-11.697106441832897,-4.615298610358687,1.0
264,239.763,0.29365079365079366,0.5247938009066783,-0.5689982175898606,-0.43766671241835753,-0.4253114914617552,-0.0038305471782973007,1.8355488896746814,-0.007359106372856009,-16.239070063943423,-6.433748454780292,-1.7723468683263768,0.0
265,239.86,0.3356643356643357,0.5820291164576539,-0.6242394548298711,-0.36705290887011555,-0.34952184451043605,-0.0005061278762976025,0.5175957406054099,-0.0026851849506630675,-9.587934355775642,-1.571408219122592,0.853999026693721,0.0
266,239.952,0.9508670520231214,0.6043369872469558,-0.6458969057409378,-0.3389041524899165,-0.3205235150816979,0.0008015222037211062,0.0008520721611566678,-0.0008600132679566744,-7.213222567600009,0.3800273008000018,0.25818948119993834,0.0
267,240.067,0.9508670520231214,0.6040937588576921,-0.6459321593060842,-0.3378699684663442,-0.32199819862494145,0.0008128097739536326,-6.819512904630582e-05,-0.0008724696433637303,-7.7049279986000485,0.4792705988000092,-3.201792771800335,0.0
268,240.15,0.9826086956521739,0.6039125879443497,-0.645961742629774,-0.3371220261362549,-0.32306591606170576,0.0008206121092662208,-0.0007177125099115139,-0.0008816010886803286,-8.0513381032,0.5491723999999993,-5.638117671199997,0.0
269,240.26,0.9623188405797102,0.6033706440076412,-0.646223132974218,-0.33604858776407576,-0.32466241695201,0.0008124698959290985,-0.0007908138674683835,-0.0009012814294546832,-8.0556530292,0.5491723999999993,-5.599283337200002,0.0
270,240.353,0.962536023054755,0.6029124550429694,-0.6464441266290661,-0.33514104441305126,-0.3260121858865404,0.0008055860246531656,-0.0008526177424937571,-0.0009179202630184612,-8.059301103000001,0.5491723999999993,-5.566450672999996,0.0
271,240.46,0.9766081871345029,0.6025081824565468,-0.6465914134834281,-0.33436032168879243,-0.32726905733645667,0.0008072374083391173,-0.0008720734536525335,-0.0009307135170162384,-8.0610663,0.5491723999999993,-5.5505639,0.0
272,240.551,0.9648093841642229,0.602240219381874,-0.6466506433883644,-0.33385895741668736,-0.3281552174637096,0.0008145501230476022,-0.0008567364462484362,-0.0009376738508940623,-8.0610663,0.5491723999999993,-5.5505639,0.0
273,240.66,0.9765395894428153,0.6019399188454717,-0.6467072299301093,-0.333312345855175,-0.32915183249457575,0.0008210692398409658,-0.0008422979833168597,-0.00094591634254346,-8.0610663,0.5491723999999993,-5.5505639,0.0
274,240.752,0.9941690962099126,0.6018418558989094,-0.646647015848773,-0.3332564700153347,-0.32950552013802825,0.0008097271918712465,-0.0008596802481442733,-0.0009521618668654143,-8.0610663,0.5491723999999993,-5.5505639,0.0
275,240.86,0.9854227405247813,0.601726738526858,-0.6465763297532913,-0.3331908766381309,-0.32992071867599426,0.0007964126138198383,-0.0008800855155503655,-0.0009594935693303165,-8.0610663,0.5491723999999993,-5.5505639,0.0
276,240.951,0.9912790697674418,0.6016730117603619,-0.6464961721956025,-0.3332830484887057,-0.33008276455585295,0.0007877108073444113,-0.0008881305411998783,-0.0009679527469298549,-8.0610663,0.5491723999999993,-5.5505639,0.0
277,241.06,0.9941690962099126,0.6016493081014934,-0.6463808084714173,-0.3335319653640826,-0.3301004367548662,0.0007796523277647791,-0.0008891724940058926,-0.0009802285668199823,-8.0610663,0.5491723999999993,-5.5505639,0.0
278,241.158,0.9736070381231672,0.6016299574347534,-0.6462783908248977,-0.333766318899811,-0.3300994483815408,0.0007737484341487284,-0.0008888769615441573,-0.0009881481644697504,-8.0610663,0.5491723999999993,-5.5505639,0.0
279,241.26,0.9941002949852508,0.6016277770028167,-0.6461837352233197,-0.3341069287501299,-0.3299438388467014,0.0007798891896381972,-0.0008772821924649186,-0.0009678383730351934,-8.0610663,0.5491723999999993,-5.5505639,0.0
280,241.352,0.976401179941003,0.6016258103387168,-0.6460983595826808,-0.3344141454778684,-0.329803485148611,0.0007854279102757578,-0.0008668241654522709,-0.0009495197376236303,-8.0610663,0.5491723999999993,-5.5505639,0.0
281,241.46,0.9794117647058823,0.6016237755358966,-0.6460120076217704,-0.334779801837956,-0.32960523529597147,0.000795601382851602,-0.0008530814116820678,-0.0009327058806084081,-8.0610663,0.5491723999999993,-5.5505639,0.0
282,241.558,0.9882352941176471,0.6016221135337118,-0.6459429901092233,-0.33511497447713984,-0.3294027973225481,0.0008073046570643778,-0.0008396242093294864,-0.0009206067700870338,-8.0610663,0.5491723999999993,-5.5505639,0.0
283,241.66,0.9941860465116279,0.6016207384606762,-0.645873565121695,-0.33545856673745295,-0.3291919447386413,0.0008163259429857134,-0.0008305392405018213,-0.0009086917410604655,-8.0610663,0.5491723999999993,-5.5505639,0.0
284,241.754,0.9708454810495627,0.6016219232954391,-0.6458262395868631,-0.33573884851849795,-0.32899658015718863,0.0008028007610701032,-0.0008561831172555672,-0.0009023968665860596,-8.0610663,0.5491723999999993,-5.5505639,0.0
285,241.86,0.9912536443148688,0.6016232593857036,-0.6457728724943931,-0.3360549109524424,-0.3287762754164015,0.0007875489601865386,-0.0008851006804034163,-0.0008952983911149191,-8.0610663,0.5491723999999993,-5.5505639,0.0
286,241.951,0.991304347826087,0.6016253240801611,-0.6457356135637741,-0.33629833126224346,-0.32859673907256925,0.0007808113311124276,-0.000907778125849971,-0.0008963721823336857,-8.0610663,0.5491723999999993,-5.5505639,0.0
287,242.068,0.8,0.6016288246289945,-0.645695596624576,-0.3365855660612532,-0.3283747499556828,0.0007780077410360936,-0.0009349547354393183,-0.0009043602529352917,-8.0610663,0.5491723999999993,-5.5505639,0.0
288,242.152,0.7665706051873199,0.60163166981613,-0.645667064305076,-0.3367901909762248,-0.3282159933609139,0.0007759660702613917,-0.0009523678742102357,-0.0009107215663822081,-8.030464825903758,0.5470456566265153,-5.550445747590362,0.0
289,242.265,0.7746478873239436,0.6016475549889158,-0.6456358655824864,-0.33700752968136166,-0.32802495474957954,0.0007721721405073645,-0.0008995804101617758,-0.0009420267369384921,-6.877809301606551,0.46693832289157433,-5.545995340160643,0.0
290,242.355,0.6191709844559585,0.6016602068964443,-0.6456110170423708,-0.337180631304922,-0.327872800103384,0.00076915042654398,-0.0008575372972028238,-0.0009669600586204893,-5.959765078714932,0.4031360216867514,-5.542450767871487,0.0
291,242.46,0.5122549019607843,0.6016269767098256,-0.6456506140009047,-0.3373146321301596,-0.3277179630996778,0.0021996827153491724,-0.0008417093707248577,0.00020648537948750214,-5.52114395,0.3726526999999993,-5.54075725,0.0
292,242.543,0.4797843665768194,0.6015743989048058,-0.6457195161012489,-0.3373833035405607,-0.3276080002886718,0.004116682839812947,-0.0008474113885313277,0.00179333563894053,-5.52114395,0.3726526999999993,-5.54075725,0.0
293,242.66,0.4031746031746032,0.6015160079166995,-0.6457810956365337,-0.3375071686194041,-0.3274662399360297,0.006266345435753455,-0.0008550623618066307,0.003578524560667566,-5.5216146692,0.3731234191999993,-5.5412279692,0.0
294,242.751,0.4489795918367347,0.6015776081112744,-0.6455870701959885,-0.33778768831229766,-0.32744613824492097,0.004177455272991012,-0.0008583806559909137,0.0018929599991532305,-5.5251842898,0.37669303979999963,-5.544797589800001,0.0
295,242.86,0.49390243902439024,0.6016513929597213,-0.645354666096874,-0.3381236954169723,-0.32742206039513144,0.0016753780450667896,-0.0008623553160578019,-0.00012601293716612075,-5.5294599892,0.3809687392,-5.549073289200001,0.0
296,242.942,0.33112582781456956,0.6016980157125685,-0.6452752490649182,-0.33827298942643785,-0.3273388188568951,0.0008172218417748844,-0.0008651589662767951,-0.000832964807283134,-5.5309506,0.38073337959999887,-5.5471119591999996,0.0
297,243.06,0.34831460674157305,0.6017540646255559,-0.6452795522582907,-0.3383592203881529,-0.32713809167041896,0.000855109498836102,-0.0008689617547206584,-0.0008412509430199865,-5.5309506,0.37610464079999906,-5.537854481599999,0.0
298,243.149,0.5490196078431373,0.6017963608784273,-0.6452827908330951,-0.3384241889010577,-0.3269867388747213,0.0008831309254746873,-0.0008716278991196298,-0.0008476300321053722,-5.5309506,0.3726526999999993,-5.5309898266,0.0
299,243.26,0.5416666666666666,0.6018515349296802,-0.6452860557477198,-0.3384975240535456,-0.3268027070056615,0.0008571818741038453,-0.0008527763891033838,-0.0008697854131460178,-5.5309506,0.3726526999999993,-5.535343979199999,0.0
300,243.344,0.22727272727272727,0.6018932882657637,-0.6452885264939222,-0.3385530209256986,-0.3266634396452919,0.0008375447541475301,-0.0008385103815235202,-0.0008865516474470491,-5.5309506,0.3726526999999993,-5.5386390136,0.0
301,243.466,0.10526315789473684,0.5932908575366646,-0.6243555130043631,-0.35908855396153994,-0.35331395334086113,0.007704996866640923,-0.18932385279334696,-0.018942163248083937,-5.5309506,0.3726526999999993,-5.54075725,0.0
302,243.56,0.3157894736842105,0.5813621577868555,-0.5954165045972828,-0.387426590853682,-0.39027813003228273,0.017215690126643205,-0.4498897978104821,-0.04388649164326647,-5.5309506,0.3726526999999993,-5.54075725,0.0
303,243.66,0.7894736842105263,0.5695620920435139,-0.5676702731905685,-0.414810749933612,-0.42571907127236397,0.024906022757291747,-0.6605282842954608,-0.0640566650358958,-5.734772013600008,0.365591911999999,-5.378359125999994,0.0
304,243.767,0.7368421052631579,0.5639198718286844,-0.5618352622617879,-0.4224339029917046,-0.4331750103382443,0.014087474763393426,-0.3636426094591158,-0.03568415423273111,-7.552179618199996,0.3026332189999996,-3.9303091870000033,0.0
305,243.86,0.6363636363636364,0.5590158860344857,-0.5567637107068654,-0.4290596341543471,-0.4396554059749453,0.004684437721965928,-0.10560178927420438,-0.011023934562685904,-9.131795573600296,0.24791211199998936,-2.671723725999763,0.0
306,243.96,0.7727272727272727,0.5610748280175237,-0.5588784535109711,-0.4263031446940236,-0.43684252142833685,0.0008302581659518159,0.16395388000182212,-0.0009171184748411321,-9.72615701679999,0.16961581839998907,-2.1088220159999906,0.0
307,244.06,0.7666666666666667,0.567627604025187,-0.5656316626658212,-0.41749060040005515,-0.42803479862173033,0.0008107768767513323,0.42866296906957163,-0.0008677679942921298,-9.643781156799996,0.0793946383999942,-2.0303688159999953,0.0
308,244.158,0.7391304347826086,0.5754102790575085,-0.5736548957830795,-0.4064612264016715,-0.41700410043484837,0.0007928605254023414,0.6342954722593284,-0.0008224793658796675,-9.563085633067738,-2.4057642938331436e-16,-1.964455625498005,0.0
309,244.267,0.5652173913043478,0.59738720944433,-0.5963313545478954,-0.370770974686998,-0.3812531673587688,0.0007844368217093686,0.33660017468956094,-0.0008022031256098316,-9.473653673505979,-2.447487174983156e-16,-1.9985249434262942,0.0
310,244.357,0.3125,0.6155332987545488,-0.6150550360968252,-0.34130195950974584,-0.35173404830512633,0.0007774814700362722,0.0907967179805893,-0.0007854612758457476,-9.399810771115538,-2.481937260336376e-16,-2.0266555729083664,0.0
311,244.467,0.8125,0.6239761171823612,-0.6238173060372049,-0.32761163633900275,-0.3378999363479374,0.0007710234413061838,-0.017608950146468967,-0.0007837683670260153,-9.100216742771032,-3.006375629068892e-16,-2.4548919991968687,0.0
312,244.56,1.0,0.6239414383253475,-0.6238508843494366,-0.32769627168920323,-0.3378198974495478,0.0007666302882284522,-0.008989201832457544,-0.0007921383046661028,-8.737606997590344,-3.7016349612421336e-16,-3.0226143275100674,0.0
313,244.66,1.0,0.6239111135292045,-0.6238890478638629,-0.32777971338570994,-0.3377244869765009,0.000758011742765384,-0.0008343194081868618,-0.0007986202620105035,-8.379307909677419,-4.476899720958447e-16,-3.655666045161298,0.0
314,244.757,0.9333333333333333,0.6239312378459276,-0.6239407043069001,-0.32780684617681766,-0.33756544948483175,0.0007219472768596295,-0.0008459477765192746,-0.0007869965608528378,-8.25656661290321,-5.425761493332869e-16,-4.430470481048491,0.0
315,244.864,1.0,0.6239534368344779,-0.6239976861564358,-0.3278367761628849,-0.3373900163754647,0.0006821648247780277,-0.0008587749457106977,-0.0007741745399881975,-8.121171574193527,-6.472444066982909e-16,-5.285151662903358,0.0
316,244.964,0.9,0.6240372526893431,-0.6241173691832859,-0.3277371508229335,-0.33711001185495937,0.0007010619054430222,-0.0008670865024055643,-0.0007478208160988717,-8.0806796,-6.785470631064991e-16,-5.54075725,0.0
317,245.06,1.0,0.6241462083199573,-0.6242622751494803,-0.32758386654459654,-0.33678878096949283,0.0007445366862821362,-0.0008734047056234908,-0.0007160291443431037,-8.0806796,-6.785470631064991e-16,-5.54075725,0.0
318,245.154,0.9285714285714286,0.6242552863736985,-0.6244072585022407,-0.32742834984371183,-0.33646923259388156,0.0007862269380129875,-0.0008746078601107,-0.0006882599941454827,-8.0809149596,-6.785470631064991e-16,-5.54075725,0.0
319,245.258,1.0,0.6244147887298992,-0.6246179084872208,-0.3271682438952858,-0.33603439593014384,0.0008180920057930094,-0.0007950733089819447,-0.000712062397506091,-8.084994526000001,-6.785470631064991e-16,-5.54075725,0.0
320,245.365,1.0,0.6245788921156056,-0.6248346349140752,-0.3269006348906553,-0.33558701590110607,0.0008508762582205276,-0.0007132444919552556,-0.0007365514086559444,-8.0891917722,-6.785470631064991e-16,-5.54075725,0.0
321,245.46,1.0,0.6247164155353174,-0.6250230261874774,-0.3266715053001727,-0.3352029629267978,0.0008386553409398009,-0.0007163947044623197,-0.0007539760640013489,-8.09048625,-6.785470631064991e-16,-5.54075725,0.0
322,245.553,1.0,0.6248467836780396,-0.6252053518066527,-0.32645161134182465,-0.3348338489927875,0.0008051574183349686,-0.0007589754105389734,-0.0007687840184968599,-8.09048625,-6.785470631064991e-16,-5.54075725,0.0
323,245.66,1.0,0.6249929111246698,-0.625411003547492,-0.32620508795031056,-0.3344176031995687,0.000775650372047836,-0.0007987149668286065,-0.0007779064664312948,-8.090056476494023,-6.785470631064991e-16,-5.54075725,0.0
324,245.756,1.0,0.6250937449860445,-0.6255632477663529,-0.3260345912550013,-0.3341101853833243,0.0008199103382987466,-0.0007619319476216925,-0.0007241186917763203,-8.086305725896414,-6.785470631064991e-16,-5.54075725,0.0
325,245.867,0.9166666666666666,0.6252103341382591,-0.6257392801444108,-0.32583745445105,-0.3337547335332918,0.0008710859242763554,-0.0007194015816637035,-0.0006619265773315139,-8.081968920517928,-6.785470631064991e-16,-5.54075725,0.0
326,245.961,1.0,0.6252899285512572,-0.6258674572778671,-0.32570385402013985,-0.3334956023543949,0.0008649529057487547,-0.0006932361354400578,-0.0006654744389949462,-8.0806796,-6.785470631064991e-16,-5.54075725,0.0
327,246.065,1.0,0.6253665352464647,-0.6259967636886076,-0.32557599847985547,-0.3332339719335009,0.000828557369349728,-0.000670183455593975,-0.0007030464153377747,-8.0806796,-6.785470631064991e-16,-5.54075725,0.0
328,246.157,1.0,0.6254322915020704,-0.6261092941829125,-0.32546622405084447,-0.3330064952374255,0.0007997934655286379,-0.000653580797836187,-0.0007317391894757727,-8.0806796,-6.785470631064991e-16,-5.54075725,0.0
329,246.261,0.9285714285714286,0.625482752525265,-0.6262144732961,-0.32538163964668776,-0.3327964176078326,0.0008080158480443056,-0.0006797993853688228,-0.0007102395016700039,-8.0806796,-6.785470631064991e-16,-5.54075725,0.0
330,246.377,0.9285714285714286,0.6255390359742129,-0.6263317884608093,-0.3252872955035899,-0.3325621002517481,0.0008171869670040912,-0.0007090431945398473,-0.0006862590806558709,-8.0806796,-6.785470631064991e-16,-5.54075725,0.0
331,246.46,1.0,0.6255673973966801,-0.6264061499665676,-0.3252384485055059,-0.33241641671364375,0.000819907593773678,-0.0007296809065155703,-0.0006756778184790156,-8.0806796,-6.785470631064991e-16,-5.54075725,0.0
332,246.558,1.0,0.6255958125372505,-0.6264898710098614,-0.3251887188981429,-0.332253762355044,0.0008214840709697454,-0.000753926222678272,-0.0006659850541036583,-8.0806796,-6.785470631064991e-16,-5.54075725,0.0
333,246.66,0.7647058823529411,0.6256236956848558,-0.6265752983112814,-0.3251395989621591,-0.33208827447965317,0.0008213116923733009,-0.0007774033022495318,-0.000654553738515454,-8.081109373505976,-6.785470631064991e-16,-5.54075725,0.0
334,246.759,0.8235294117647058,0.6256371746242513,-0.6266444753051057,-0.3251131169712676,-0.3319582093122914,0.0008065854398667304,-0.0007860754476025301,-0.0006326757147871142,-8.08497733505976,-6.785470631064991e-16,-5.54075725,0.0
335,246.872,1.0,0.6256525596762887,-0.6267234349041173,-0.3250828900523712,-0.3318097510909593,0.0007897766870056893,-0.0007959739569448448,-0.0006077038291173844,-8.089392281075698,-6.785470631064991e-16,-5.54075725,0.0
336,246.961,0.9444444444444444,0.6256567905785526,-0.6267786140995312,-0.3250702239373199,-0.3317099374221029,0.0008054046602227778,-0.0007846994628478946,-0.0006190452221631428,-8.09048625,-6.785470631064991e-16,-5.54075725,0.0
337,247.064,0.8333333333333334,0.625657497524929,-0.6268387491890238,-0.32506148369664306,-0.3316035138356387,0.0008388255834093204,-0.0007615207108186513,-0.0006486435671407985,-8.09048625,-6.785470631064991e-16,-5.54075725,0.0
338,247.17,1.0,0.6256556414031981,-0.6268987698182888,-0.32505597069522235,-0.33149896285029945,0.0008604859898332544,-0.0007485884781926832,-0.0006680801389738948,-8.0896624914,-6.785470631064991e-16,-5.54075725,0.0
339,247.255,1.0,0.6256457671390628,-0.6269408431366568,-0.325062850913184,-0.33143126360645225,0.0008365242183208481,-0.0007736669741570934,-0.0006478855684399617,-8.0863282304,-6.785470631064991e-16,-5.54075725,0.0
340,247.357,1.0,0.6256339180221004,-0.6269913311186983,-0.32507110717473797,-0.3313500245138356,0.0008077700925059621,-0.0008037611693143841,-0.0006236520837992433,-8.0823271172,-6.785470631064991e-16,-5.54075725,0.0
341,247.46,1.0,0.6256159454926836,-0.6270378391847921,-0.32508872289844754,-0.33127866149206364,0.0008010766091756529,-0.0007836204329505526,-0.0006083980938419693,-8.0806796,-6.785470631064991e-16,-5.54075725,0.0
342,247.557,1.0,0.6255951247110144,-0.6270787364472629,-0.3251113288066462,-0.3312183757842379,0.0008092603096738446,-0.0007318884823471378,-0.0006000091899186383,-8.0806796,-6.785470631064991e-16,-5.54075725,0.0
343,247.66,1.0,0.6255722220297484,-0.6271210723887798,-0.32513640832312324,-0.3311568667318495,0.0008211956397478129,-0.0006835078869285839,-0.0005903401244172009,-8.0806796,-6.785996951813443e-16,-5.541187023505977,0.0
344,247.768,1.0,0.6255412443331438,-0.6271558953723038,-0.32517213532476497,-0.33111434560732855,0.0008621715251319249,-0.0006902309830775447,-0.0005735257094117456,-8.0806796,-6.791164464616426e-16,-5.545406617928287,0.0
345,247.857,1.0,0.6255157164164975,-0.6271845920902077,-0.32520157702056224,-0.3310793050510103,0.0008959386899392007,-0.0006957713123114102,-0.0005596693859350286,-8.0806796,-6.795422877944811e-16,-5.548883876294821,0.0
346,247.954,0.9285714285714286,0.6254838168558909,-0.6272125909164661,-0.3252380522359783,-0.33105069950245564,0.0008951981232153713,-0.0007152228008854741,-0.0005462042502049038,-8.0806796,-6.794875804132892e-16,-5.548437156626506,0.0
347,248.065,1.0,0.6254435981681925,-0.6272416443850575,-0.3252837895308293,-0.3310266991614517,0.0008601405417984255,-0.0007497041292645652,-0.0005322870958304733,-8.0806796,-6.789522090232703e-16,-5.54406551746988,0.0
348,248.15,1.0,0.625412748402952,-0.627263833998637,-0.3253188915172705,-0.33100845215771957,0.0008339066093321904,-0.0007757465511094777,-0.0005218193768523635,-8.0806796,-6.785470631064991e-16,-5.54075725,0.0
349,248.26,1.0,0.6253672082295051,-0.6272861865393796,-0.3253727892652219,-0.3309991479712926,0.0008664808154571771,-0.0007700753484386957,-0.0005288793561048799,-8.0806796,-6.785470631064991e-16,-5.54075725,0.0
350,248.367,0.9285714285714286,0.6253229100607886,-0.6273079294653746,-0.3254252170745929,-0.3309900975354046,0.0008981666341423957,-0.0007645588149316616,-0.0005357467904686919,-8.0806796,-6.785470631064991e-16,-5.54075725,0.0
351,248.46,1.0,0.6252807796872406,-0.6273254896424774,-0.3254743299653143,-0.33098811263208183,0.0009030834401492024,-0.000741594155784694,-0.0005319419731385998,-8.0806796,-6.785470631064991e-16,-5.54075725,0.0
352,248.56,1.0,0.6252334316166002,-0.6273436168880442,-0.3255291390568926,-0.3309892958601022,0.0008956091341096907,-0.0007066517709754404,-0.0005223376625217495,-8.0806796,-6.785470631064991e-16,-5.54075725,0.0
353,248.661,1.0,0.6251853028017181,-0.6273613121189375,-0.32558473080943323,-0.3309919976973077,0.0008877523174320173,-0.0006787318964043552,-0.0005126258435351142,-8.0806796,-6.785470631064991e-16,-5.54075725,0.0
354,248.758,1.0,0.6251368914596205,-0.627373938142844,-0.3256397917361395,-0.33100532520846926,0.0008780144526534132,-0.0007044275836700007,-0.0005032169846892052,-8.0806796,-6.785470631064991e-16,-5.54075725,0.0
355,248.864,1.0,0.6250839883435138,-0.6273877356535046,-0.3256999614086226,-0.3310198892928314,0.0008673730746479297,-0.0007325074068675061,-0.000492935138940069,-8.0806796,-6.785470631064991e-16,-5.54075725,0.0
356,248.964,1.0,0.6250326726997719,-0.6273990130102569,-0.32575795209572694,-0.331038344052623,0.0008564419531540197,-0.000756723240081474,-0.0005030202137934681,-8.0806796,-6.785470631064991e-16,-5.54075725,0.0
357,249.062,1.0,0.6249816077360978,-0.6274091061064143,-0.3258154592674722,-0.3310590288927005,0.0008452376918811116,-0.0007792009021077013,-0.000523810029445016,-8.0806796,-6.785470631064991e-16,-5.54075725,0.0
358,249.153,1.0,0.6249341159008519,-0.6274183718029775,-0.3258689458259709,-0.33107849057680894,0.0008349390462972231,-0.0007996328426524987,-0.0005411939881742024,-8.0806796,-6.785470631064991e-16,-5.54075725,0.0
359,249.26,1.0,0.6248763719275205,-0.6274265438999976,-0.32593406263883296,-0.3311078784423185,0.000825522899860517,-0.0008124001200776537,-0.000512509797699752,-8.0806796,-6.785470631064991e-16,-5.54075725,0.0
360,249.353,1.0,0.6248261832404194,-0.6274336467506787,-0.3259906594948719,-0.33113342116654637,0.0008173387725837522,-0.0008234969126060615,-0.0004875786788761594,-8.0806796,-6.785470631064991e-16,-5.54075725,0.0
361,249.471,1.0,0.26495426282762624,-0.26602998776757136,-0.13818776810885414,-0.14038317117832838,0.000806770024821162,-0.0008133572214283044,-0.0004884905982762579,-8.0806796,-6.785470631064991e-16,-5.54075725,0.0
362,249.555,1.0,-0.1548673490567497,0.15561171315702038,0.08094826500932167,0.08217352684950552,0.0007991625592112535,-0.0007951240562833834,-0.0005039412789046774,-8.0806796,-6.785470631064991e-16,-5.54075725,0.0
363,249.66,1.0,-0.6246619615103596,0.6274492378269538,0.3261783016245635,0.3312289259730937,0.0007930973109202932,-0.0007746590716964696,-0.000520032515148243,-8.081109373505976,-6.785470631064991e-16,-5.54075725,0.0
364,249.761,1.0,-0.6246090489849939,0.6274527559244061,0.3262368862782001,0.33126433191300797,0.0008155731897081318,-0.0007740971027034897,-0.0005090252493519298,-8.08505547569721,-6.785470631064991e-16,-5.54075725,0.0
365,249.864,1.0,-0.6245550886868487,0.6274563436871544,0.3262966310239879,0.33130043896064326,0.0008384941354026623,-0.0007735240056116387,-0.0004978000178962827,-8.089079718525896,-6.785470631064991e-16,-5.54075725,0.0
366,249.953,1.0,-0.6245085594622014,0.6274583913524523,0.3263473044034773,0.33133435589337834,0.0008388543265392954,-0.0007670235352115672,-0.0004911803159802912,-8.088398890763052,-6.785470631064991e-16,-5.54075725,0.0
367,250.06,1.0,-0.6244526987704296,0.6274599937076717,0.32640744995295123,0.3313773517109607,0.000823407941432408,-0.0007543043349402019,-0.00048573680192112435,-8.08418478815261,-6.785470631064991e-16,-5.54075725,0.0
368,250.174,1.0,-0.6243929130778364,0.6274619167674136,0.3264713441066318,0.33142343051329926,0.0008192338573280741,-0.0007409635873045767,-0.00048040602123364777,-8.0806796,-6.785470631064991e-16,-5.54075725,0.0
369,250.263,1.0,-0.624345486307354,0.6274640180916118,0.3265207090143393,0.3314601552099722,0.0008501127408817425,-0.0007311336230486628,-0.0004775473484769461,-8.0806796,-6.785470631064991e-16,-5.54075725,0.0
370,250.357,1.0,-0.6242953951115635,0.6274662374677313,0.32657284723146857,0.33149894309185146,0.0008827263931743795,-0.0007207514136098329,-0.00047452807612717146,-8.0806796,-6.785470631064991e-16,-5.54075725,0.0
371,250.46,1.0,-0.6242407177778919,0.6274688745302809,0.32662922647772386,0.3315413663364935,0.0008892685596365472,-0.0007141142527107148,-0.0004385417401790578,-8.0806796,-6.785470631064991e-16,-5.54075725,0.0
372,250.573,1.0,-0.6241808904630962,0.6274719226152721,0.32669051220762063,0.3315878491438162,0.0008743935157544902,-0.0007104124813340603,-0.0003743775626644454,-8.0806796,-6.785470631064991e-16,-5.54075725,0.0
373,250.66,1.0,-0.6241351840204611,0.6274741332828874,0.32673702253201636,0.33162388405344706,0.0008670141555431967,-0.0007104103829604062,-0.0003377946907194281,-8.0806796,-6.785470631064991e-16,-5.54075725,0.0
374,250.755,1.0,-0.6240879551798622,0.6274755205260207,0.32678272274322584,0.3316650979601382,0.0008896854226069277,-0.0007318941024280475,-0.0003945511117377143,-8.0806796,-6.785470631064991e-16,-5.54075725,0.0
375,250.86,1.0,-0.6240357548823582,0.627477053794747,0.3268332335029836,0.3317106501727969,0.0009147431388352666,-0.0007556392660501816,-0.0004572818928632001,-8.0806796,-6.785470631064991e-16,-5.54075725,0.0
376,250.963,1.0,-0.6239851036645684,0.6274786095541566,0.3268808622304682,0.3317560539988195,0.0009119956963134568,-0.0007759037677265955,-0.0004551421923854667,-8.0806796,-6.785470631064991e-16,-5.54075725,0.0
377,251.066,1.0,-0.6239348046933393,0.6274801981362975,0.3269272719594998,0.3318019145071008,0.0008918972259076933,-0.0007942454928221803,-0.0004125735334431131,-8.0806796,-6.785470631064991e-16,-5.54075725,0.0
378,251.152,1.0,-0.6238928919527756,0.6274815153550819,0.3269659429710549,0.33184014068852524,0.0008751827876549239,-0.0008093037414364504,-0.0003792424020357383,-8.080797279799999,-6.785470631064991e-16,-5.54075725,0.0
379,251.262,1.0,-0.6238422714244091,0.6274828756589031,0.3270126152521615,0.3318867303161333,0.0008561680607963354,-0.0008194979378022254,-0.0004148739143274722,-8.0851122058,-6.785470631064991e-16,-5.54075725,0.0
380,251.372,1.0,-0.6237916508960424,0.6274842359627244,0.3270592875332682,0.3319333199437413,0.000837153333937747,-0.0008296921341680003,-0.0004505054266192061,-8.0894271318,-6.785470631064991e-16,-5.54075725,0.0
381,251.46,1.0,-0.6237507284737821,0.627486458283539,0.3270956360203415,0.33197019716975573,0.0008481709646947875,-0.0008151408020996907,-0.0004580047902691944,-8.088102960557768,-6.785470631064991e-16,-5.54075725,0.0
382,251.56,1.0,-0.6237040114516846,0.6274895540672416,0.3271364435015365,0.3320119046945869,0.0008738838858342172,-0.0007871841727496239,-0.00045596126075537195,-8.08419592868526,-6.785470631064991e-16,-5.54075725,0.0
383,251.667,1.0,-0.6236545381186054,0.6274928224611496,0.3271793699201751,0.33205636991074855,0.0008882123113144211,-0.0007681485647335635,-0.00044891544524580353,-8.0806796,-6.785470631064991e-16,-5.54075725,0.0
384,251.772,1.0,-0.6236086592135989,0.6274958006847052,0.327217662095712,0.3320991632401851,0.0008337778188288286,-0.0008059816607274064,-0.00041675679292530246,-8.0806796,-6.785470631064991e-16,-5.54075725,0.0
385,251.836,1.0,-0.6235806949286425,0.6274976159828725,0.3272410020884202,0.3321252467933655,0.0008005986995995009,-0.0008290418335236635,-0.00039715532865375054,-8.0806796,-6.785470631064991e-16,-5.54075725,0.0
386,251.965,1.0,-0.6235257342431968,0.6275022302188727,0.32728452838644745,0.33217682378872504,0.0007995539620567709,-0.0008333298824972616,-0.0003936371618979858,-8.0806796,-6.785470631064991e-16,-5.54075725,0.0
387,252.064,1.0,-0.6234846166486052,0.6275064932164952,0.32731527368224095,0.33221565226219785,0.0008484970972409479,-0.0008047384939058448,-0.0004181332611912468,-8.0806796,-6.785470631064991e-16,-5.54075725,0.0
388,252.16,1.0,-0.623445144553847,0.6275105682940565,0.32734460505616453,0.3322531366349326,0.0008876964156773568,-0.0007824968956613352,-0.0004354797726084757,-8.0806796,-6.785470631064991e-16,-5.54075725,0.0
389,252.263,1.0,-0.623405531007549,0.6275145381458187,0.3273727717120772,0.3322922069760802,0.0008731669575627515,-0.0007961955776883542,-0.00041020022642618157,-8.0806796,-6.785470631064991e-16,-5.54075725,0.0
390,252.362,1.0,-0.6233674558513985,0.6275183538285803,0.3273998445172748,0.332329760022426,0.000859201750248716,-0.000809362272063836,-0.000385902410192719,-8.0806796,-6.785470631064991e-16,-5.54075725,0.0
391,252.463,1.0,-0.6233278815855593,0.6275239676201873,0.3274266175260706,0.33236700797663576,0.0008633174318820221,-0.0008126344806514684,-0.0003902943558059606,-8.0806796,-6.785470631064991e-16,-5.54075725,0.0
392,252.562,1.0,-0.6232886594207281,0.6275304877697767,0.3274523597685037,0.3324028894322808,0.0008782083899714062,-0.0008098347070626913,-0.0004118518102914107,-8.0806796,-6.785470631064991e-16,-5.54075725,0.0
393,252.66,1.0,-0.6232500052599257,0.627536984291923,0.32747754569539167,0.33243829589069546,0.0008914122660644353,-0.0008103792998008403,-0.0004299098066985616,-8.0806796,-6.785470631064991e-16,-5.54075725,0.0
394,252.758,1.0,-0.623212863119925,0.627543852461422,0.3275001242448103,0.3324727118362075,0.0008910934613086283,-0.0008401054474525166,-0.0004190887901931995,-8.0806796,-6.785470631064991e-16,-5.54075725,0.0
395,252.86,1.0,-0.6231742049742099,0.6275510009643699,0.32752362436767457,0.33250853251418944,0.0008907616441138088,-0.000871044907253238,-0.0004078260995447626,-8.0806796,-6.785470631064991e-16,-5.54075725,0.0
396,252.956,1.0,-0.6231390476991948,0.6275575190389316,0.32754438841509376,0.33254166354192444,0.0009002729025669367,-0.0008802188332192608,-0.00040457959100604013,-8.0828762896,-6.785470631064991e-16,-5.54075725,0.0
397,253.067,1.0,-0.6230994103566271,0.6275648821844322,0.32756727882114456,0.3325794901675856,0.0009193835007026795,-0.000874353284947574,-0.0004068991597741841,-8.0872304422,-6.785470631064991e-16,-5.54075725,0.0
398,253.153,1.0,-0.6230687729073874,0.6275706121055067,0.327584902827513,0.33260872253636925,0.000933096939930695,-0.0008695299653336426,-0.0004090325934812407,-8.0903685702,-6.785470631064991e-16,-5.54075725,0.0
399,253.264,1.0,-0.62303182042989,0.6275789054930841,0.3276036898290749,0.33264378353807433,0.0009117676429450503,-0.000853347308468073,-0.0004237949047237639,-8.0860144176,-6.785470631064991e-16,-5.54075725,0.0
400,253.358,1.0,-0.6230005273408382,0.6275859287222039,0.32761959954210923,0.33267347483681553,0.0008937049950473013,-0.000839643076527864,-0.00043629632145166365,-8.0823271172,-6.785470631064991e-16,-5.54075725,0.0
401,253.46,1.0,-0.6229663764589352,0.6275954099075398,0.32763578820671063,0.3327035962752763,0.0008809272432699798,-0.000832186376210302,-0.000417730500921606,-8.0806796,-6.785470631064991e-16,-5.54075725,0.0
402,253.558,1.0,-0.6229334339820639,0.6276057703806353,0.32765061898675646,0.3327311262939786,0.0008732388052158068,-0.0008300082725472751,-0.00037828295305371794,-8.0806796,-6.785470631064991e-16,-5.54075725,0.0
403,253.659,1.0,-0.6228996773260862,0.6276164190080346,0.32766555662268876,0.33275953050407797,0.0008664865621831261,-0.0008285904005169859,-0.00034184253728017106,-8.0806796,-6.785470631064991e-16,-5.54075725,0.0
404,253.766,1.0,-0.6228660191035666,0.6276273861392782,0.3276776222140885,0.3327899625256156,0.0008720205347053699,-0.0008360432875342657,-0.00034888047538697613,-8.0806796,-6.785470631064991e-16,-5.54075725,0.0
405,253.864,1.0,-0.6228351919464927,0.6276374308015387,0.3276886729426603,0.33281783484440713,0.0008770890329033136,-0.0008428692962042986,-0.00035532643739134053,-8.0806796,-6.785470631064991e-16,-5.54075725,0.0
406,253.955,1.0,-0.6228075610947557,0.6276467752086391,0.32769786443541954,0.3328428685315494,0.0008852262538857766,-0.0008406104182358825,-0.00036837850930169347,-8.082837063,-6.785470631064991e-16,-5.54075725,0.0
407,254.06,1.0,-0.6227764303321148,0.627657570222687,0.3277076619690914,0.33287111329512303,0.0008972064172849055,-0.0008315109438262883,-0.00038877555634826347,-8.086955856,-6.785470631064991e-16,-5.54075725,0.0
408,254.157,1.0,-0.6227476898516757,0.6276676349128464,0.32771657104646335,0.3328971367192113,0.0009092018194496644,-0.0008227208175230765,-0.00040342476265504745,-8.09048625,-6.785470631064991e-16,-5.54075725,0.0
409,254.27,1.0,-0.6227144844852097,0.6276807400228788,0.32772482313568074,0.33292641383657584,0.0009370755404233944,-0.0008067300776019685,-0.0003576762787997703,-8.09048625,-6.785470631064991e-16,-5.54075725,0.0
410,254.358,1.0,-0.6226886254387584,0.6276909457722845,0.327731249541443,0.33294921371558533,0.0009587825089693065,-0.0007942771119996908,-0.0003220491409301763,-8.09048625,-6.785470631064991e-16,-5.54075725,0.0
411,254.473,1.0,-0.6226560097836775,0.6277053617576152,0.32773756412943406,0.33297681516680344,0.0009350451047066564,-0.0008076192762237062,-0.0003341499469243019,-8.0876227082,-6.785470631064991e-16,-5.54075725,0.0
412,254.557,1.0,-0.6226326809844127,0.6277163451137268,0.3277413009094622,0.3329960542630454,0.0008958095696289175,-0.0008298109543975396,-0.0003676402489654648,-8.0843276738,-6.785470631064991e-16,-5.54075725,0.0
413,254.663,1.0,-0.622603414786662,0.6277301533201672,0.3277458968776075,0.33302022336439,0.0008583993825595851,-0.0008542773649096489,-0.000402695352677255,-8.0806796,-6.785470631064991e-16,-5.54075725,0.0
414,254.757,1.0,-0.6225785562387993,0.6277420700774262,0.32774921449067473,0.3330409660794722,0.0009019948134664443,-0.0008535329755395651,-0.0003880642889998853,-8.0806796,-6.785470631064991e-16,-5.54075725,0.0
415,254.855,1.0,-0.6225526398803892,0.6277544939307387,0.3277526732787661,0.33306259146328127,0.0009474453690927402,-0.0008527569100260736,-0.00037281062686816095,-8.0806796,-6.785470631064991e-16,-5.54075725,0.0
416,254.977,1.0,-0.6225214447717029,0.6277703653250882,0.3277545242011052,0.33308916134202293,0.0009350257672754728,-0.0008421506745325604,-0.00035193335754894105,-8.083712178514055,-6.785470631064991e-16,-5.54075725,0.0
417,255.06,1.0,-0.6225006465454384,0.6277813240886075,0.32775480737481116,0.3331070978097088,0.0008991420054883066,-0.0008311021037915924,-0.00033697930499387667,-8.08698106184739,-6.785470631064991e-16,-5.54075725,0.0
418,255.154,0.9333333333333333,-0.6224770553409299,0.6277938191647989,0.32775509585405016,0.33312735278542116,0.0008622424389918384,-0.0008202853765193942,-0.0003214468052462331,-8.090290898406375,-6.785470631064991e-16,-5.54075725,0.0
419,255.26,1.0,-0.6224497181103631,0.6278095943582678,0.3277547743591179,0.3331490169785981,0.0008957003249296977,-0.0008421327255061428,-0.0003321012607274705,-8.086149444621514,-6.785470631064991e-16,-5.54075725,0.0
420,255.357,1.0,-0.6224247019654104,0.6278240301485176,0.3277544801609251,0.33316884175914685,0.000926317446967177,-0.0008621251108996796,-0.00034185109263011354,-8.082359623705178,-6.785470631064991e-16,-5.54075725,0.0
421,255.463,1.0,-0.6223977578672243,0.6278407776625303,0.32775346386293797,0.33318861684034223,0.0009229544812114929,-0.0008701236220076681,-0.0003577472816687063,-8.0806796,-6.785470631064991e-16,-5.54075725,0.0
422,255.566,1.0,-0.6223718370721033,0.6278576960551804,0.32775201551906713,0.33320657934781617,0.0008952662756200855,-0.0008687108989790199,-0.0003766700143127585,-8.0806796,-6.785470631064991e-16,-5.54075725,0.0
423,255.672,1.0,-0.6223454137767993,0.6278749556259761,0.3277500452249082,0.33322534921947994,0.0008784787787590203,-0.0008699689163721268,-0.0003912095506224895,-8.081470458870967,-6.785470631064991e-16,-5.54075725,0.0
424,255.768,1.0,-0.6223224664663877,0.6278899965902035,0.32774639243770115,0.33324345505894964,0.000908866670215504,-0.0008816692645796731,-0.000385161421652282,-8.085266581451613,-6.785470631064991e-16,-5.54075725,0.0
425,255.877,1.0,-0.622296411707691,0.6279070743516701,0.32774224500222643,0.3332640127308475,0.0009433695886400546,-0.0008949540349403253,-0.00037829427521735866,-8.089576762298387,-6.785470631064991e-16,-5.54075725,0.0
426,255.957,1.0,-0.6222777562245161,0.6279195240366958,0.32773894008463494,0.33327863922600387,0.0009382485181558889,-0.0008874827791005383,-0.0003756532915867865,-8.0882503338,-6.785470631064991e-16,-5.54075725,0.0
427,256.06,1.0,-0.622253980047749,0.6279355091319588,0.3277345494464312,0.33329723097498093,0.0009158387850038676,-0.0008689166419208023,-0.0003734994120895858,-8.084209994,-6.785470631064991e-16,-5.54075725,0.0
428,256.164,1.0,-0.6222299818874142,0.6279518332340193,0.32773004061928596,0.33331571354107553,0.0008961958773434161,-0.0008537359265610583,-0.0003695338070392593,-8.0806796,-6.785470631064991e-16,-5.54075725,0.0
429,256.26,1.0,-0.6222078822742915,0.6279679923866556,0.3277254302387509,0.333331055359648,0.0008957735635340213,-0.000860881912522019,-0.00035524643957614684,-8.0806796,-6.785470631064991e-16,-5.54075725,0.0
430,256.354,1.0,-0.6221862430697753,0.6279838148902785,0.3277209159078103,0.33334607755700024,0.0008953600479289889,-0.0008678790237754589,-0.0003412567256018507,-8.0806796,-6.785470631064991e-16,-5.54075725,0.0
431,256.46,1.0,-0.6221617206032448,0.6280029310318306,0.327714846501663,0.33336180062139587,0.000897919946531969,-0.0008682139710415589,-0.00033373257379043855,-8.0806796,-6.785470631064991e-16,-5.54075725,0.0
432,256.561,1.0,-0.6221382666044755,0.6280220759424799,0.3277083483881148,0.33337589311155086,0.0009025697463258825,-0.0008630138665133452,-0.0003325910691498405,-8.0806796,-6.785470631064991e-16,-5.54075725,0.0
433,256.672,1.0,-0.6221125325559399,0.6280429900356425,0.3277013773329065,0.33339137102358624,0.0009083892579656106,-0.0008612523598130813,-0.0003332698098383855,-8.0806796,-6.785470631064991e-16,-5.54075725,0.0
434,256.758,1.0,-0.6220927343498559,0.6280587741963132,0.32769654226139505,0.3334033301325629,0.0009152533917222149,-0.0008730149066541304,-0.000340215018484739,-8.0806796,-6.785470631064991e-16,-5.54075725,0.0
435,256.86,1.0,-0.6220692527565934,0.6280774949450157,0.32769080764169545,0.33341751419204685,0.0009233945736195895,-0.0008869658343028282,-0.0003484523589722814,-8.0806796,-6.785470631064991e-16,-5.54075725,0.0
436,256.958,1.0,-0.622048069199093,0.628094328375696,0.3276838196725554,0.33343219323449524,0.0009234248194843522,-0.0008937959573231641,-0.0003643168401904439,-8.0806796,-6.788208838682484e-16,-5.542993166200001,0.0
437,257.066,1.0,-0.6220258157463137,0.6281119653893044,0.327674946853151,0.3334492034368029,0.000917281722649934,-0.0008961120783351354,-0.0003881022171117284,-8.0806796,-6.793397021536676e-16,-5.547229638999998,0.0
438,257.152,1.0,-0.622008085245432,0.6281260275338304,0.32766787759053384,0.33346273763674694,0.0009124890088569363,-0.0008978934087790558,-0.0004063897323794764,-8.0806796,-6.79743227486772e-16,-5.550524673400001,0.0
439,257.272,1.0,-0.6219821401243596,0.6281477669250497,0.32765755457576984,0.3334803225231938,0.0009175447213929139,-0.0008929082998074599,-0.00035449485527352313,-8.0806796,-6.791667627251947e-16,-5.545817481400001,0.0
440,257.357,1.0,-0.6219637623302665,0.6281631656604967,0.327650242440312,0.33349277848442704,0.0009211258511058994,-0.000889377180952578,-0.00031773598399012525,-8.0806796,-6.787584335190773e-16,-5.542483220399999,0.0
441,257.471,1.0,-0.621939229586219,0.6281849295600227,0.3276406110577076,0.3335069979005432,0.0009071851614862696,-0.000875099578406663,-0.00029916098341345774,-8.0806796,-6.785470631064991e-16,-5.54075725,0.0
442,257.553,1.0,-0.6219216352761479,0.62820108682762,0.3276337625615697,0.33351610180343405,0.0008886830904521077,-0.0008605156098492467,-0.0002996917823329566,-8.0806796,-6.785470631064991e-16,-5.54075725,0.0
443,257.66,1.0,-0.6218986693295245,0.6282221494923643,0.327624700054835,0.3335281572009073,0.000868554560994488,-0.0008430828665479631,-0.0003036212707606322,-8.081031232868526,-6.785470631064991e-16,-5.54075725,0.0
444,257.763,1.0,-0.6218764831244826,0.628242208851855,0.3276146550523086,0.33354160583407655,0.000891256925790933,-0.0008430471330736412,-0.00034133207694852824,-8.08505547569721,-6.785470631064991e-16,-5.54075725,0.0
445,257.862,1.0,-0.6218551585196364,0.6282614892070937,0.3276050001469677,0.33355453219022957,0.0009130776453525849,-0.0008430127873070597,-0.000377578385808773,-8.088923437250997,-6.785470631064991e-16,-5.54075725,0.0
446,257.957,1.0,-0.6218346431576299,0.6282797146615423,0.32759581379967057,0.33356747188930475,0.0009144722772986592,-0.0008537481388406285,-0.000385723445175522,-8.088320122489959,-6.785470631064991e-16,-5.54075725,0.0
447,258.06,1.0,-0.6218123589015392,0.6282992573420619,0.3275859157329334,0.3335819235925407,0.0009005732318184462,-0.0008738785124211816,-0.0003735508791257038,-8.084263556425702,-6.785470631064991e-16,-5.54075725,0.0
448,258.167,1.0,-0.6217892788199724,0.6283196632020882,0.32757556404808064,0.33359667715237235,0.0008927526317009847,-0.0008921648071433195,-0.00035805208144703096,-8.0806796,-6.785470631064991e-16,-5.54075725,0.0
449,258.259,1.0,-0.621769774535424,0.628337718182852,0.3275663250001797,0.33360809406588776,0.0009183926814870274,-0.0008950467496012079,-0.0003307718121301918,-8.0806796,-6.785470631064991e-16,-5.54075725,0.0
450,258.35,1.0,-0.6217504822539688,0.6283555769138249,0.32755718637671244,0.33361938688251713,0.0009437540350797342,-0.0008978973665975964,-0.00030378806747984976,-8.0806796,-6.785470631064991e-16,-5.54075725,0.0
451,258.46,1.0,-0.6217275704388784,0.6283767701943608,0.32754604156143796,0.3336331103608578,0.0009550807180821874,-0.0008990308056507573,-0.000293047282848491,-8.0806796,-6.785470631064991e-16,-5.54075725,0.0
452,258.559,1.0,-0.6217072794428161,0.6283955260710753,0.32753593204889564,0.3336455202502785,0.0009496775045304501,-0.0008981850641070904,-0.0003010329949962679,-8.0806796,-6.785470631064991e-16,-5.54075725,0.0
453,258.66,1.0,-0.6216865516523958,0.6284146490645748,0.32752566051114185,0.33365821114522737,0.0009426449661154328,-0.0008976697334065946,-0.0003098685258857347,-8.080955288955824,-6.785470631064991e-16,-5.54075725,0.0
454,258.755,1.0,-0.6216667157590827,0.6284324871234525,0.3275165322779933,0.3336705308486425,0.0009168291987615656,-0.0009015741875866446,-0.0003268753924597797,-8.08469678192771,-6.785470631064991e-16,-5.54075725,0.0
455,258.869,1.0,-0.6216429126871069,0.6284538927941057,0.3275055783982151,0.33368531449274075,0.0008858502779369063,-0.0009062595326027074,-0.00034728363234864593,-8.089186573493977,-6.785470631064991e-16,-5.54075725,0.0
456,258.957,1.0,-0.6216246002059419,0.6284704151883841,0.3274965697831374,0.33369715202270867,0.0008790915994904938,-0.00090041868854314,-0.00034322994295507537,-8.09048625,-6.785470631064991e-16,-5.54075725,0.0
457,259.06,1.0,-0.6216032096936301,0.6284897530000373,0.3274856372598716,0.3337113061966471,0.0008832282740622765,-0.0008869404303841272,-0.00032457507401704495,-8.09048625,-6.785470631064991e-16,-5.54075725,0.0
458,259.159,1.0,-0.6215826248275287,0.6285084557136882,0.32747514602147526,0.3337247221305973,0.0008897047233767827,-0.0008754098848439757,-0.00030958567280322424,-8.0902116638,-6.785470631064991e-16,-5.54075725,0.0
459,259.26,1.0,-0.6215612881816857,0.6285290900884838,0.32746466703832416,0.33373588076672556,0.0009298385959118621,-0.0008827437399886552,-0.0003337275609374055,-8.086249777199999,-6.785470631064991e-16,-5.54075725,0.0
460,259.362,1.0,-0.6215397402819235,0.62854992876402,0.32745408430286466,0.3337471498843997,0.0009703698335215594,-0.0008901502075605121,-0.0003581084776669827,-8.082248663999998,-6.785470631064991e-16,-5.54075725,0.0
461,259.46,1.0,-0.6215187799580238,0.6285706833437844,0.3274437739393995,0.333757210911422,0.0009745345055125668,-0.0008974998071789736,-0.00036167476605624023,-8.0806796,-6.785470631064991e-16,-5.54075725,0.0
462,259.569,1.0,-0.6214952694715205,0.6285943298604311,0.3274321968781415,0.33376781353910556,0.000952490324852982,-0.000905853534350174,-0.00035040857223793545,-8.0806796,-6.785470631064991e-16,-5.54075725,0.0
463,259.66,1.0,-0.6214756767030732,0.6286139514403074,0.3274225357309991,0.3337768209468625,0.000933912437638289,-0.0009108186950759216,-0.00033999054271372127,-8.0806796,-6.785470631064991e-16,-5.54075725,0.0
464,259.756,1.0,-0.621455393248288,0.6286333376412068,0.3274123886901793,0.3337880271135901,0.0009124090198412698,-0.0008940674837619573,-0.0003179203264326609,-8.0806796,-6.785470631064991e-16,-5.54075725,0.0
465,259.859,1.0,-0.6214336307915913,0.6286541374192551,0.3274015017609664,0.3338000503966417,0.0008893376444965367,-0.0008760948299563381,-0.0002942408235477581,-8.0806796,-6.785470631064991e-16,-5.54075725,0.0
466,259.959,1.0,-0.621412800404971,0.6286739752112357,0.32739062266926955,0.3338121379104352,0.0008803909377056552,-0.0008681159027960585,-0.0002982199316410478,-8.0806796,-6.785470631064991e-16,-5.54075725,0.0
467,260.067,1.0,-0.6213905670984895,0.628695085304206,0.32737859997905583,0.3338255586249644,0.0008826157775703802,-0.0008678669198771497,-0.00032634808388295414,-8.0806796,-6.785470631064991e-16,-5.54075725,0.0
468,260.16,1.0,-0.6213713709984586,0.628713327673392,0.327368268325053,0.3338370674615258,0.0008849397583398972,-0.0008682412665802989,-0.00034786301571875736,-8.0806796,-6.785470631064991e-16,-5.54075725,0.0
469,260.266,1.0,-0.6213487808777344,0.6287350195185284,0.3273567895802958,0.3338495144553176,0.0008933039007242769,-0.0008769122313242406,-0.0003344856398180127,-8.0806796,-6.785470631064991e-16,-5.54075725,0.0
470,260.365,1.0,-0.6213276825574353,0.6287552788833256,0.32734606886585277,0.3338611394778212,0.0009011156940832726,-0.0008850105851888648,-0.00032199167553335553,-8.0806796,-6.785470631064991e-16,-5.54075725,0.0
471,260.46,1.0,-0.6213074703063417,0.6287750031299169,0.32733568364503385,0.3338717893894985,0.0009184298557229238,-0.0008962975249160023,-0.0003139500799588881,-8.082915516199998,-6.785470631064991e-16,-5.54075725,0.0
472,260.54,1.0,-0.6212904683331089,0.6287917721471097,0.3273268833655763,0.33388047399557214,0.0009385220599360765,-0.0009077760942745954,-0.0003093943851999937,-8.0860536442,-6.785470631064991e-16,-5.54075725,0.0
473,260.66,1.0,-0.6212649527234002,0.6288168871051621,0.32731373339476405,0.3338935470323397,0.0009658350490972361,-0.0009224050675066123,-0.00030424359460468997,-8.090212757768924,-6.785470631064991e-16,-5.54075725,0.0
474,260.753,1.0,-0.6212450198671003,0.628835868687718,0.32730417331257877,0.33390425572577453,0.0009516558799599576,-0.0009013537736795157,-0.00032130415566205753,-8.086579218127492,-6.785470631064991e-16,-5.54075725,0.0
475,260.86,1.0,-0.6212220863657661,0.6288577077128091,0.32729317407823655,0.33391657648058665,0.0009353422122428626,-0.000877133467878431,-0.000340932973222698,-8.082398694023905,-6.785470631064991e-16,-5.54075725,0.0
476,260.959,1.0,-0.6212007404332692,0.6288778626513588,0.32728265206567797,0.33392864262906335,0.0009353831557680417,-0.0008781270255394522,-0.00034070320952923026,-8.0806796,-6.785470631064991e-16,-5.54075725,0.0
477,261.061,1.0,-0.6211786429050988,0.6288985860931127,0.32727152671625803,0.33394162383499004,0.0009479001648331313,-0.0008984404360318125,-0.00032530783583975347,-8.0806796,-6.785470631064991e-16,-5.54075725,0.0
478,261.16,1.0,-0.6211572146927303,0.6289187452418035,0.32726080089411624,0.3339540305674624,0.0009585890351914826,-0.0009174277370367505,-0.0003105731720420254,-8.0806796,-6.785470631064991e-16,-5.54075725,0.0
479,261.275,1.0,-0.6211326193383322,0.6289428528053699,0.32724944557638463,0.3339655008940694,0.0009487157766406847,-0.0009283593305641929,-0.00029663122146420873,-8.0806796,-6.785470631064991e-16,-5.54075725,0.0
480,261.358,1.0,-0.6211148679086361,0.6289602521773352,0.32724124999923915,0.33397377947762047,0.0009415898595996688,-0.0009362490893709616,-0.00028656877017760313,-8.0806796,-6.785470631064991e-16,-5.54075725,0.0
481,261.46,1.0,-0.6210929980226348,0.6289822113902247,0.32723010448703477,0.3339840159758353,0.0009448261730917679,-0.0009301509298641915,-0.000281559739155113,-8.082966526284583,-6.785470631064991e-16,-5.54075725,0.0
482,261.562,1.0,-0.621071088142251,0.6290045910207909,0.327218176346344,0.33399429825609506,0.0009568034861744817,-0.0009125418834049576,-0.00028191249690611244,-8.086920195454546,-6.785470631064991e-16,-5.54075725,0.0
483,261.665,1.0,-0.6210490053171196,0.6290270188495619,0.32720624965194217,0.33400480902438234,0.0009678854683879769,-0.0008968581093940888,-0.0002867516614496806,-8.090054757399999,-6.785470631064991e-16,-5.54075725,0.0
484,261.757,1.0,-0.6210295935493259,0.6290457724610371,0.32719648109805655,0.33401515111840197,0.0009702182163018736,-0.000898521597729996,-0.0003245635852217709,-8.0864459102,-6.785470631064991e-16,-5.54075725,0.0
485,261.867,1.0,-0.6210063838269638,0.6290681952573662,0.32718480130536715,0.3340275166655993,0.000973007371416316,-0.000900510551175103,-0.0003697734940797181,-8.082130984199999,-6.785470631064991e-16,-5.54075725,0.0
486,261.965,1.0,-0.6209860915705638,0.6290870789001778,0.32717485523432954,0.33403942006839693,0.0009793499840889106,-0.0009121337407268545,-0.00037444134429097533,-8.0806796,-6.785470631064991e-16,-5.54075725,0.0
487,262.066,1.0,-0.6209654191061619,0.6291058573326301,0.3271648919759171,0.334052242237578,0.0009882983230054359,-0.0009302709861658473,-0.00035699132736772676,-8.0806796,-6.785470631064991e-16,-5.54075725,0.0
488,262.158,1.0,-0.6209465601797752,0.6291230356057843,0.3271558011917192,0.33406385184626414,0.0009952250821515876,-0.0009454430541954905,-0.00034055653493850825,-8.0806796,-6.785470631064991e-16,-5.54075725,0.0
489,262.267,1.0,-0.6209234719568866,0.6291452952222977,0.3271446307250321,0.3340757823790386,0.0009715226676780731,-0.0009282570113427938,-0.00030701676383614545,-8.0806796,-6.785470631064991e-16,-5.54075725,0.0
490,262.365,1.0,-0.6209027137381427,0.6291653084554932,0.3271345875531482,0.3340865089130927,0.0009502122399862828,-0.0009128053397871534,-0.0002768617402762134,-8.0806796,-6.785470631064991e-16,-5.54075725,0.0
491,262.46,1.0,-0.6208829342184229,0.6291847180740491,0.3271244026091066,0.334096687485754,0.0009519394007511407,-0.0009130130293779056,-0.00026998579967766836,-8.0806796,-6.785470631064991e-16,-5.54075725,0.0
492,262.559,1.0,-0.6208625709863252,0.6292049514971286,0.32711346280581793,0.3341071352561579,0.0009699854056816602,-0.000924250986427072,-0.00027904523303732534,-8.0806796,-6.785470631064991e-16,-5.54075725,0.0
493,262.662,1.0,-0.6208413649602198,0.6292260047851819,0.32710204954156474,0.33411806809397926,0.000986168790608647,-0.0009350426965393126,-0.0002896940261125518,-8.0806796,-6.785470631064991e-16,-5.54075725,0.0
494,262.755,1.0,-0.6208220029314702,0.6292450392930088,0.3270914071653986,0.33412861428880536,0.0009729919868987055,-0.0009351335102692247,-0.0003124255212023851,-8.0806796,-6.785470631064991e-16,-5.54075725,0.0
495,262.867,1.0,-0.6207986852194275,0.6292679625712517,0.3270785905403382,0.3341413150825744,0.0009571231480222164,-0.0009352428773418069,-0.00033980108518153965,-8.0806796,-6.785470631064991e-16,-5.54075725,0.0
496,262.951,1.0,-0.6207812016528637,0.6292845545735241,0.32706938664588836,0.3341515589362816,0.0009592640220653306,-0.0009411151169333639,-0.0003493275176733734,-8.0806796,-6.785470631064991e-16,-5.54075725,0.0
497,263.064,1.0,-0.6207576870889615,0.6293062388733768,0.3270574379037188,0.33416610000652663,0.0009770152601413467,-0.000955146613996479,-0.0003504880983382465,-8.0806796,-6.785470631064991e-16,-5.54075725,0.0
498,263.159,1.0,-0.6207378978598275,0.6293245176164989,0.3270474064855837,0.3341782570181321,0.0009927680322610987,-0.0009639327958378352,-0.0003508616686869134,-8.080874951593625,-6.785470631064991e-16,-5.54075725,0.0
499,263.261,1.0,-0.6207162572255327,0.6293450820776992,0.327036906180614,0.3341899998339112,0.001025706237419502,-0.0009151901212609767,-0.00033962563565185984,-8.084860124103587,-6.785470631064991e-16,-5.54075725,0.0
500,263.375,1.0,-0.6206920706342621,0.629368065887276,0.32702517054564784,0.3342031241574289,0.0010625195255376983,-0.0008607130143809872,-0.0003270677163773949,-8.089314140438248,-6.785470631064991e-16,-5.54075725,0.0
501,263.46,1.0,-0.6206740791603513,0.6293858240351072,0.32701547969559464,0.334212577192992,0.0010629204474389541,-0.0008577595872338875,-0.00033005387056618996,-8.088328787,-6.785470631064991e-16,-5.54075725,0.0
502,263.57,1.0,-0.6206508259974092,0.629409243588887,0.3270022746454703,0.3342245757254246,0.0010443468764424289,-0.000880524894455452,-0.0003426356101408623,-8.084013860999999,-6.785470631064991e-16,-5.54075725,0.0
503,263.664,1.0,-0.6206309756848863,0.6294290650292577,0.3269911114774835,0.3342350324170334,0.0010277654170058631,-0.0008987799955066304,-0.00035231707291677575,-8.0806796,-6.785470631064991e-16,-5.54075725,0.0
504,263.76,1.0,-0.6206109014519245,0.6294474598287253,0.32698087931089087,0.33424767346626466,0.0010039877681992902,-0.000905859753256665,-0.0003518819739110766,-8.0806796,-6.785470631064991e-16,-5.54075725,0.0
505,263.86,1.0,-0.6205899907925894,0.6294666210781709,0.3269702208040236,0.33426084122588057,0.0009792193840257723,-0.0009132345009129525,-0.0003514287457801399,-8.0806796,-6.785470631064991e-16,-5.54075725,0.0
506,263.976,1.0,-0.6205655697458431,0.6294886856859125,0.32695813030564475,0.3342764542591847,0.000961111888289449,-0.0009349245892372051,-0.00036234180815518304,-8.083464688600001,-6.785470631064991e-16,-5.54075725,0.0
507,264.073,1.0,-0.6205450614183163,0.6295070501705977,0.3269481650307435,0.3342896893510617,0.0009516008021309965,-0.000960023615043612,-0.00037752984277904125,-8.0872696688,-6.785470631064991e-16,-5.54075725,0.0
508,264.159,1.0,-0.6205268767753461,0.6295233518667437,0.32693930934743065,0.3343014097301808,0.0009452510044450042,-0.00097934244224898,-0.0003890344643045198,-8.090328713453815,-6.785470631064991e-16,-5.54075725,0.0
509,264.266,1.0,-0.620504200631874,0.6295441387628025,0.32692776858681105,0.3343156394176777,0.0009904719316905675,-0.0009285467080715647,-0.00035332995663249923,-8.086114610843373,-6.785470631064991e-16,-5.54075725,0.0
510,264.358,1.0,-0.6204847033870194,0.629562011608012,0.32691784568982973,0.3343278742891704,0.0010293534766119697,-0.0008848718712087589,-0.0003226307537743264,-8.082491270281125,-6.785470631064991e-16,-5.54075725,0.0
511,264.464,1.0,-0.6204618744020047,0.6295842915941168,0.3269061522868707,0.33433972008767365,0.0010290706179575946,-0.000887803602787443,-0.0003056993046627039,-8.0806796,-6.785470631064991e-16,-5.54075725,0.0
512,264.559,1.0,-0.6204411638279079,0.6296054189029918,0.32689549335896245,0.3343487899953721,0.000997841535358716,-0.0009270214236367573,-0.00030319471249868783,-8.0806796,-6.785470631064991e-16,-5.54075725,0.0
513,264.66,1.0,-0.6204191841413684,0.6296277874253756,0.3268841834204843,0.33435851379350956,0.0009653838549274857,-0.0009641550260130055,-0.0003008804819546661,-8.0806796,-6.785470631064991e-16,-5.54075725,0.0
514,264.752,1.0,-0.6203998437836162,0.6296465337277939,0.3268742692920351,0.3343687886796759,0.0009488262350205265,-0.0009182095334399308,-0.0003048682357184604,-8.0806796,-6.785470631064991e-16,-5.54075725,0.0
515,264.861,1.0,-0.6203769296641054,0.6296687440208765,0.3268625232050681,0.3343809621861121,0.0009292090549133687,-0.0008637741128913972,-0.00030959285702556437,-8.0806796,-6.785470631064991e-16,-5.54075725,0.0
516,264.964,1.0,-0.6203554490086558,0.6296891084876126,0.3268509286545628,0.3343937988483782,0.0009476388554159351,-0.0008595782780622843,-0.0003000386448881267,-8.0806796,-6.785470631064991e-16,-5.54075725,0.0
517,265.072,1.0,-0.6203330602075304,0.6297099741678629,0.3268383841601946,0.3344083012096925,0.0009958703048616327,-0.0008921212341870201,-0.0002790584574004552,-8.0806796,-6.785470631064991e-16,-5.54075725,0.0
518,265.154,1.0,-0.6203160613029722,0.6297258166287937,0.3268288596366929,0.3344193122618015,0.0010324904794407693,-0.0009168297749483908,-0.0002631290557894472,-8.0806796,-6.785470631064991e-16,-5.54075725,0.0
519,265.268,1.0,-0.6202922939840992,0.6297479818681369,0.32681683680175266,0.3344334057427394,0.001033947544172406,-0.0008836672031320733,-0.00029166987165807795,-8.0806796,-6.785470631064991e-16,-5.54075725,0.0
520,265.364,1.0,-0.6202722773742895,0.629766649443443,0.32680673063361926,0.3344452556730462,0.0010344308782368897,-0.0008547255867160947,-0.000316466446965925,-8.0806796,-6.785470631064991e-16,-5.54075725,0.0
521,265.46,1.0,-0.6202518301897988,0.629785633350381,0.3267967245762555,0.3344572061889507,0.0010256783923586917,-0.0008667464601339682,-0.0003220209002168312,-8.0806796,-6.785470631064991e-16,-5.54075725,0.0
522,265.557,1.0,-0.6202308316339323,0.6298050636049353,0.3267866929641421,0.33446936023756796,0.0010095764919967013,-0.000911084137322667,-0.0003125112206003496,-8.0806796,-6.785470631064991e-16,-5.54075725,0.0
523,265.664,1.0,-0.6202076790289888,0.6298265104034052,0.3267755482052814,0.3344827986060313,0.0009937894925190866,-0.0009550455862742251,-0.00030325362776746493,-8.080955288955824,-6.785470631064991e-16,-5.54075725,0.0
524,265.774,1.0,-0.6201840351700556,0.6298487556752415,0.32676293135138473,0.33449707380001287,0.0010065636008484186,-0.0009275849253578788,-0.00031183677983571295,-8.085287543975904,-6.785470631064991e-16,-5.54075725,0.0
525,265.867,1.0,-0.6201640453620483,0.6298675630414302,0.3267522643749085,0.3345091428276518,0.0010173635287995817,-0.0009043681847649664,-0.0003190934447661413,-8.088950268674699,-6.785470631064991e-16,-5.54075725,0.0
526,265.974,1.0,-0.6201417706527798,0.629888104731922,0.3267406510427516,0.33452310155137893,0.00100553779676557,-0.000885892648715528,-0.00031462924182415177,-8.0878188412,-6.785470631064991e-16,-5.54075725,0.0
527,266.06,1.0,-0.6201242015021355,0.6299041092439961,0.3267316209365704,0.3345343542954758,0.0009848538683727393,-0.0008748397724702959,-0.0003051346894353631,-8.0844453536,-6.785470631064991e-16,-5.54075725,0.0
528,266.151,1.0,-0.6201056108892445,0.6299210442509582,0.32672206582421587,0.3345462612688806,0.0009629673860035826,-0.0008631442871410394,-0.0002950881281867617,-8.080875733,-6.785470631064991e-16,-5.54075725,0.0
529,266.272,1.0,-0.620080455622507,0.6299454550950636,0.32670850398368184,0.3345601648074515,0.000988489166833457,-0.0008724761875346291,-0.00028891659900546134,-8.085229885599999,-6.785470631064991e-16,-5.54075725,0.0
530,266.361,1.0,-0.6200619391690616,0.6299634701905839,0.32669850158490515,0.33457033022576527,0.0010089931823313199,-0.0008801290439441786,-0.0002846050704829401,-8.088721052999999,-6.785470631064991e-16,-5.54075725,0.0
531,266.467,1.0,-0.6200394087769896,0.6299859067246374,0.3266861357450345,0.3345819125746085,0.0010115787102840867,-0.000886032827664166,-0.00028598254034295544,-8.0880934274,-6.785470631064991e-16,-5.54075725,0.0
532,266.571,1.0,-0.6200169581770829,0.6300086294935018,0.3266736754415593,0.3345928965611962,0.0009983115992508802,-0.0008895012480206794,-0.0002920477115549158,-8.084013860999999,-6.785470631064991e-16,-5.54075725,0.0
533,266.672,1.0,-0.6199953964657571,0.6300302074403467,0.3266617069520158,0.3346039074686235,0.0009916336071562537,-0.0008937986289332844,-0.00029894489000933824,-8.0806796,-6.785470631064991e-16,-5.54075725,0.0
534,266.758,1.0,-0.6199781284003844,0.6300463671255525,0.32665211479331796,0.3346148381261199,0.001014022201121562,-0.0009016601806617814,-0.00030937275211085404,-8.0806796,-6.785470631064991e-16,-5.54075725,0.0
535,266.865,1.0,-0.6199566437143973,0.6300664727804015,0.3266401803633102,0.3346284378976561,0.0010418777773342344,-0.0009114414136263143,-0.0003223469526325175,-8.0806796,-6.785470631064991e-16,-5.54075725,0.0
536,266.966,1.0,-0.6199364232851363,0.6300851090618546,0.3266288491218666,0.33464186851879785,0.0010592307434417335,-0.0009175407062284658,-0.0003288031923584645,-8.0806796,-6.785470631064991e-16,-5.54075725,0.0
537,267.06,1.0,-0.6199176436974237,0.6301022271663231,0.3266182594661136,0.3346547614840154,0.0010694576273672304,-0.0009211412728764124,-0.0003309756484813992,-8.0806796,-6.785470631064991e-16,-5.54075725,0.0
538,267.156,1.0,-0.6198984645440151,0.6301197094857804,0.326607444498536,0.33466792876764184,0.001079902104567739,-0.0009248184473253795,-0.00033319432707503484,-8.0806796,-6.785470631064991e-16,-5.54075725,0.0
539,267.258,1.0,-0.6198774019573812,0.6301384531012524,0.3265968137650616,0.3346820223784077,0.0010645028739236296,-0.0009120035744272174,-0.00031504741171374924,-8.0806796,-6.785470631064991e-16,-5.54075725,0.0
540,267.366,1.0,-0.6198550932166993,0.630158301050377,0.3265855667118268,0.33469694610879025,0.001047920032870024,-0.000898259583394974,-0.00029561807634308863,-8.0806796,-6.785470631064991e-16,-5.54075725,0.0
541,267.469,1.0,-0.6198337825915209,0.6301782793342569,0.32657495839984163,0.3347091476675448,0.0010245821927581343,-0.0008906604447569029,-0.000294495226937788,-8.0806796,-6.785470631064991e-16,-5.54075725,0.0
542,267.572,1.0,-0.6198124490218396,0.6301989514580212,0.3265644281494366,0.3347200059749194,0.0009962696486071083,-0.0008867040612322995,-0.0003048834447522619,-8.0806796,-6.785470631064991e-16,-5.54075725,0.0
543,267.664,1.0,-0.6197934325201019,0.6302173877886564,0.3265549444858458,0.3347297614678155,0.0009738638280352229,-0.0008825085361499425,-0.00031364672250641705,-8.0806796,-6.785470631064991e-16,-5.54075725,0.0
544,267.765,1.0,-0.6197731650745896,0.6302371856536733,0.3265433056552375,0.33474136524571657,0.0009946324479163978,-0.0008674908983876509,-0.00031515532855812175,-8.0806796,-6.785470631064991e-16,-5.54075725,0.0
545,267.86,1.0,-0.6197541016357414,0.6302558074078971,0.32653235824030885,0.33475227969027693,0.001014167288398697,-0.000853365397522125,-0.0003165743144483394,-8.0806796,-6.785470631064991e-16,-5.54075725,0.0
546,267.963,1.0,-0.6197332479490986,0.6302753669069101,0.3265212319673561,0.33476491335601094,0.0010378789389506083,-0.0008714511273428977,-0.000314646783284841,-8.0806796,-6.785470631064991e-16,-5.54075725,0.0
