,time,img_sim,orientation.x,orientation.y,orientation.z,orientation.w,angular_velocity.x,angular_velocity.y,angular_velocity.z,linear_acceleration.x,linear_acceleration.y,linear_acceleration.z,ground_truth
0,85.502,0.982,-0.0012876712823843349,0.00019901119936697895,-0.7074873309278763,-0.7067248254020245,0.00043268756578779884,-0.0003621131157463718,-0.0003256280534616173,0.0,1.2009682532858392e-15,9.80665,1.0
1,85.616,0.988,-0.0012896641631093967,0.0001995102623971554,-0.7074835362811897,-0.7067286203511643,0.0004328950622399884,-0.0003842952632805368,-0.0002793402557486746,0.0,1.2009682532858392e-15,9.80665,1.0
2,85.702,0.988,-0.001291275477751256,0.0001999203524710658,-0.7074807315941164,-0.7067314249761667,0.00042762355211068597,-0.000395015158168267,-0.0002654019154866092,0.0,1.2009682532858392e-15,9.80665,1.0
3,85.797,0.99,-0.0012933462825826952,0.0002004639332572334,-0.7074777895648346,-0.7067343661545914,0.00040716990416654424,-0.00039064705875550105,-0.0003065547445070985,0.0,1.2009682532858392e-15,9.80665,1.0
4,85.902,0.994,-0.0012956350668700755,0.00020106473307352396,-0.7074745378482601,-0.706737616930745,0.0003845632406493339,-0.000385819159404549,-0.0003520394502665889,0.0,1.2009682532858392e-15,9.80665,1.0
5,85.998,0.978,-0.001297688402063343,0.000201333033721114,-0.7074719662712382,-0.7067401873308835,0.0004077676833741925,-0.0003682292347267095,-0.0003423049271501302,0.0,1.2009682532858392e-15,9.80665,1.0
6,86.102,0.996,-0.0012998970479949625,0.00020151062288688724,-0.707469341920291,-0.7067428102792906,0.0004505596470076546,-0.0003438717738237143,-0.0003111087860881788,0.0,1.2009682532858392e-15,9.80665,1.0
7,86.196,0.988,-0.0013018826275909957,0.0002018594485757521,-0.7074668579711174,-0.7067452930270507,0.00048240515787620054,-0.000330810543615369,-0.000291186789749189,0.0,1.2009682532858392e-15,9.80665,1.0
8,86.32,0.988,-0.0013044462041630514,0.00020330017572246813,-0.7074629983837014,-0.7067491513746855,0.0004888395942980417,-0.0003602066780440478,-0.0003079934937413763,0.0,1.2009682532858392e-15,9.80665,1.0
9,86.397,1.0,-0.0013060381025182797,0.0002041948208055097,-0.707460601704419,-0.7067515472841038,0.0004928351717535406,-0.00037846072926186005,-0.00031842991476878504,0.0,1.2009682532858392e-15,9.80665,1.0
10,86.502,0.98,-0.0013079710821581878,0.00020463346684960925,-0.7074571426302909,-0.7067550060975795,0.00047932142444465157,-0.00037367173388789,-0.00033835027785417187,0.0,1.2009682532858392e-15,9.80665,1.0
11,86.595,0.988,-0.0013095989039400575,0.0002047451698002779,-0.707454011254597,-0.7067581375219987,0.0004606340468550731,-0.0003589145392955599,-0.00035800951688239865,0.0,1.2009682532858392e-15,9.80665,1.0
12,86.702,0.992,-0.001311954542133724,0.0002049923896881398,-0.7074506011002044,-0.706761546592489,0.0004422709653920769,-0.00034374917282752846,-0.0003762652710160561,0.0,1.2009682532858392e-15,9.80665,1.0
13,86.803,0.994,-0.001315842372688062,0.00020563495564102167,-0.7074480461732194,-0.7067640965664687,0.0004357535681447921,-0.0003356854756265492,-0.00037845662896929065,0.0,1.2009682532858392e-15,9.80665,1.0
14,86.902,0.982,-0.0013196532164987502,0.00020626479751562868,-0.707445541838848,-0.7067665960459141,0.0004293652282687403,-0.0003277814555978662,-0.00038060459369572864,0.0,1.2009682532858392e-15,9.80665,1.0
15,86.997,1.0,-0.0013207848068164546,0.00020589836035237285,-0.707442415853738,-0.7067697230016209,0.00041121655110135135,-0.0003248545697452613,-0.00035564238079318613,0.0,1.2009682532858392e-15,9.80665,1.0
16,87.109,0.998,-0.0013209970592342535,0.00020503506730522956,-0.7074384093684198,-0.7067737331320164,0.00038448112631538534,-0.0003234731023158715,-0.00031420834625259865,0.0,1.2009682532858392e-15,9.80665,1.0
17,87.206,0.982,-0.0013215574785806364,0.00020462333265170994,-0.7074350759517223,-0.7067770687525294,0.0003731583545450115,-0.0003275181602220977,-0.0002906453395262358,0.0,1.2009682532858392e-15,9.80665,1.0
18,87.314,0.986,-0.0013231646370343094,0.00020504195388608445,-0.7074317208469824,-0.7067804238227573,0.000391441825078798,-0.0003457061273511476,-0.0002965792743489138,0.0,1.2009682532858392e-15,9.80665,1.0
19,87.392,0.992,-0.0013243253625841844,0.00020534429144424384,-0.7074292977157813,-0.706782846929033,0.00040464655379764553,-0.00035884188138879657,-0.00030086489394307074,0.0,1.2009682532858392e-15,9.80665,1.0
20,87.505,1.0,-0.0013261985039478017,0.000206305722316572,-0.7074254798289197,-0.7067866644793778,0.00043170502828433803,-0.0003467563393060144,-0.00031303863204084183,0.0,1.2009682532858392e-15,9.80665,1.0
21,87.594,0.986,-0.0013277415163176853,0.00020724794316174562,-0.7074223641621047,-0.7067897797749801,0.00045581863773986355,-0.00032624093710910824,-0.0003247349477605877,0.0,1.2009682532858392e-15,9.80665,1.0
22,87.703,0.992,-0.0013298291637879854,0.0002085521493657223,-0.7074186043233808,-0.7067935386650744,0.000471191802882294,-0.0003204128678948037,-0.00033767755314439616,0.0,1.2009682532858392e-15,9.80665,1.0
23,87.799,0.988,-0.0013322242102110663,0.00021012324794499323,-0.7074154502918871,-0.7067966904721646,0.00044492174360625907,-0.0003695363343329969,-0.0003451906805187747,0.0,1.2009682532858392e-15,9.80665,1.0
24,87.902,0.986,-0.00133479389543583,0.00021180890579566917,-0.7074120662789305,-0.7068000720985219,0.00041673615917468246,-0.0004222417201989701,-0.00035325164009753423,0.0,1.2009682532858392e-15,9.80665,1.0
25,87.997,0.992,-0.001336006064817355,0.00021283607047829819,-0.7074087205500279,-0.706803418108806,0.00040968220485611083,-0.00041826180245538037,-0.00035003063681346034,0.0,1.2009682532858392e-15,9.80665,1.0
26,88.102,0.988,-0.0013364545306401336,0.00021356526901229858,-0.7074048497932623,-0.7068072910875316,0.0004164664372229569,-0.0003733811912351784,-0.0003382683656636185,0.0,1.2009682532858392e-15,9.80665,1.0
27,88.197,0.996,-0.0013370566139649155,0.00021452584384180052,-0.7074015907564746,-0.7068105514525754,0.0004193972784838461,-0.00035100045917273545,-0.0003320000008485124,0.0,1.2009682532858392e-15,9.80665,1.0
28,88.314,0.99,-0.001338704854941137,0.00021709819843445709,-0.7073986996248935,-0.7068134410698352,0.000408194300327154,-0.0004076100163490088,-0.0003444795568419826,0.0,1.2009682532858392e-15,9.80665,1.0
29,88.391,0.99,-0.001339789594728907,0.00021879111555953915,-0.7073967969143659,-0.7068153427837583,0.00040082140017274806,-0.0004448658787641722,-0.00035269259796589234,0.0,1.2009682532858392e-15,9.80665,1.0
30,88.502,0.988,-0.0013417004746472164,0.00022049625935923958,-0.707393108558583,-0.7068190299802528,0.0004112774166783466,-0.0004423606674884456,-0.0003662854205138122,0.0,1.2009682532858392e-15,9.80665,1.0
31,88.598,0.994,-0.0013435032525745568,0.00022165301284100453,-0.7073895097698583,-0.7068226278862956,0.0004294380722343015,-0.00041588622995794523,-0.0003787995346243969,0.0,1.2009682532858392e-15,9.80665,1.0
32,88.702,0.99,-0.001345419449555324,0.00022264533474781166,-0.7073856713914441,-0.7068264653860226,0.0004409164248500031,-0.0003936535387765618,-0.0003943052637623605,0.0,1.2009682532858392e-15,9.80665,1.0
33,88.8,0.99,-0.0013471154805893188,0.00022280374268256862,-0.7073822340406885,-0.706829902139709,0.0004273283190559609,-0.0003919035124126824,-0.0004147192755481208,0.0,1.2009682532858392e-15,9.80665,1.0
34,88.909,0.986,-0.0013490018824536603,0.0002229799310997983,-0.7073784108648479,-0.7068337246514622,0.00041221501771360647,-0.0003899570545181633,-0.00043742465600371343,0.0,1.2009682532858392e-15,9.80665,1.0
35,88.992,0.984,-0.0013501754643475067,0.00022358702209125092,-0.7073762222923901,-0.7068359124672793,0.0004142810564128259,-0.00041420004943727094,-0.00039822750215129203,0.0,1.2009682532858392e-15,9.80665,1.0
36,89.102,0.986,-0.0013516343452530568,0.00022456516858686165,-0.707373586993081,-0.7068385466717078,0.00042200104803759704,-0.00045577062046214844,-0.00032554852854612353,0.0,1.2009682532858392e-15,9.80665,1.0
37,89.193,0.994,-0.001353011866872388,0.00022515508820822823,-0.7073713113561502,-0.706840821207732,0.000427919224021025,-0.0004793799988692625,-0.00027815872046630833,0.0,1.2009682532858392e-15,9.80665,1.0
38,89.302,0.984,-0.0013556973909900883,0.00022453094923280192,-0.7073680058608018,-0.7068441242001223,0.00043216559942811764,-0.0004422320211306183,-0.0002986852771136927,0.0,1.2009682532858392e-15,9.80665,1.0
39,89.394,0.99,-0.001357964071896771,0.0002240041530333596,-0.7073652159014252,-0.7068469120469105,0.0004357496961019936,-0.00041087776469066466,-0.0003160104441922173,0.0,1.2009682532858392e-15,9.80665,1.0
40,89.502,0.978,-0.0013617935800178669,0.0002238698862992785,-0.7073620227287719,-0.706850100203777,0.0004406657791696488,-0.000417364171473309,-0.00032871362613514043,0.0,1.2009682532858392e-15,9.80665,1.0
41,89.596,0.98,-0.0013655940021761344,0.0002239466345274049,-0.707359276276519,-0.7068528412763748,0.0004452279873657975,-0.00044032284501008853,-0.00033671684050932575,0.0,1.2009682532858392e-15,9.80665,1.0
42,89.702,0.994,-0.001369507863341882,0.0002241013806163763,-0.7073562412642646,-0.7068558708534542,0.00044234172075714436,-0.00045107204773971274,-0.00033995126518549695,0.0,1.2009682532858392e-15,9.80665,1.0
43,89.796,0.992,-0.0013718523772003153,0.00022444524635208268,-0.7073537378447988,-0.7068583713656393,0.0004154496318697461,-0.0004147309571800888,-0.0003252751127220381,0.0,1.2009682532858392e-15,9.80665,1.0
44,89.902,0.992,-0.00137449619070025,0.00022483300984128343,-0.7073509148398693,-0.706861191092146,0.000385124510358429,-0.00037375057846392287,-0.0003087254088802677,0.0,1.2009682532858392e-15,9.80665,1.0
45,89.993,0.99,-0.0013759419508282873,0.00022532076234389422,-0.7073477980088281,-0.706864307085574,0.00038934425075693,-0.0003664209021949152,-0.00033631633287521803,0.0,1.2009682532858392e-15,9.80665,1.0
46,90.102,0.986,-0.0013772120692163044,0.00022599175626139304,-0.707343676227442,-0.7068684289712375,0.0004113486009793226,-0.0003732455974946233,-0.00039278303246157435,0.0,1.2009682532858392e-15,9.80665,1.0
47,90.215,0.982,-0.0013786514350355953,0.00022701916622831634,-0.7073399487384774,-0.7068721558310366,0.0004261027275351806,-0.0003739683649037027,-0.0004215394022176024,0.0,1.2009682532858392e-15,9.80665,1.0
48,90.311,0.982,-0.001380088266221831,0.00022847100016628168,-0.7073377340279557,-0.7068743687204831,0.00042457618180196717,-0.0003634972667787214,-0.00039399802184197767,0.0,1.2009682532858392e-15,9.80665,1.0
49,90.399,0.996,-0.00138140536147588,0.00022980184794274975,-0.7073357038766442,-0.7068763972024759,0.0004231768482131883,-0.00035389876016415624,-0.0003687517564976577,0.0,1.2009682532858392e-15,9.80665,1.0
50,90.502,0.994,-0.001382939791885377,0.00023124151690883388,-0.707333219069701,-0.7068788801375042,0.00041743742232210946,-0.00038111980794928893,-0.0003641168135218321,0.0,1.2009682532858392e-15,9.80665,1.0
51,90.599,0.986,-0.0013843821919200558,0.0002325537619179387,-0.7073308389259005,-0.706881258548677,0.0004105185933876778,-0.0004209477353142602,-0.0003689469534438106,0.0,1.2009682532858392e-15,9.80665,1.0
52,90.702,0.986,-0.001386087390605101,0.0002337746117759426,-0.7073280485796815,-0.7068840469179068,0.0004061901874875509,-0.00044660591272232804,-0.0003708851984256796,0.0,1.2009682532858392e-15,9.80665,1.0
53,90.807,0.996,-0.001388408155347167,0.0002344401115410831,-0.7073243216108601,-0.706887771411003,0.00041190619776173843,-0.0004169477853206058,-0.00036215453454575277,0.0,1.2009682532858392e-15,9.80665,1.0
54,90.902,0.988,-0.0013905078948757029,0.0002350422303762102,-0.7073209495914502,-0.7068911411904709,0.00041707782610505076,-0.0003901142414809537,-0.00035425536246391467,0.0,1.2009682532858392e-15,9.80665,1.0
55,90.999,0.994,-0.0013917102421211612,0.0002358002170338761,-0.7073178092371815,-0.7068942808161675,0.0004183089205841852,-0.00040680457555958033,-0.00034387919658619264,0.0,1.2009682532858392e-15,9.80665,1.0
56,91.102,0.996,-0.0013926013086125828,0.00023666373687820295,-0.7073145985934911,-0.7068974913245496,0.0004179576365323924,-0.00044258487696972784,-0.0003319148077810902,0.0,1.2009682532858392e-15,9.80665,1.0
57,91.202,0.994,-0.0013935000567447304,0.00023741032453589828,-0.7073114870733977,-0.7069006026570537,0.0004257589301560077,-0.0004615703476592896,-0.0003298441495280715,0.0,1.2009682532858392e-15,9.80665,1.0
58,91.306,0.978,-0.0013945455261797505,0.0002378845098674816,-0.7073082695671224,-0.7069038197830776,0.0004606877353508026,-0.00042943639121949674,-0.0003591263655107468,0.0,1.2009682532858392e-15,9.80665,1.0
59,91.4,0.988,-0.001395490469707557,0.0002383131004556435,-0.7073053614364506,-0.7069067275700607,0.0004922580015845625,-0.0004003922382835273,-0.0003855929838027828,0.0,1.2009682532858392e-15,9.80665,1.0
60,91.516,0.988,-0.0013978969582840435,0.0002389167274185171,-0.7073011910225923,-0.7069108953269985,0.00048684541508555275,-0.0003938536548521372,-0.00038367780833505,0.0,1.2009682532858392e-15,9.80665,1.0
61,91.612,0.988,-0.0014002151575963578,0.00023943595834356442,-0.7072975864820444,-0.7069144970807698,0.0004706819653511052,-0.000396158599993214,-0.0003729881548788401,0.0,1.2009682532858392e-15,9.80665,1.0
62,91.707,0.986,-0.0014028553567910346,0.00024000734414549642,-0.7072942011778699,-0.7069178787895142,0.00045453625929076286,-0.00040608007728587737,-0.0003596516642719514,0.0,1.2009682532858392e-15,9.80665,1.0
63,91.801,0.988,-0.0014062472565752164,0.0002407023430024075,-0.707291260655128,-0.7069208138682902,0.00043822131340857517,-0.0004331028974847882,-0.00034024437936022776,0.0,1.2009682532858392e-15,9.80665,1.0
64,91.902,0.978,-0.0014098917446411987,0.00024144909709334383,-0.7072881011572884,-0.7069239675167622,0.00042069142474792835,-0.0004621380553580832,-0.0003193918711040161,0.0,1.2009682532858392e-15,9.80665,1.0
65,92.001,0.986,-0.0014122347220660904,0.00024114219779050537,-0.7072853609569636,-0.7069267045426999,0.0004250747630625648,-0.00044872811912947464,-0.0003298034777591663,0.0,1.2009682532858392e-15,9.80665,1.0
66,92.102,0.972,-0.0014141783389181248,0.0002404516164761078,-0.7072826950214981,-0.7069293681695413,0.0004373829038153722,-0.00041983335661173774,-0.00035163549812672004,0.0,1.2009682532858392e-15,9.80665,1.0
67,92.194,0.972,-0.0014158074227180446,0.00023997295217791762,-0.7072802186160504,-0.7069318427198596,0.00044590136156933986,-0.000394748581449882,-0.0003717745096245517,0.0,1.2009682532858392e-15,9.80665,1.0
68,92.302,0.988,-0.0014166136904473735,0.0002405879293988222,-0.7072769356554868,-0.7069351254417756,0.00043482627994889867,-0.0003749680704661535,-0.0003973914085046553,0.0,1.2009682532858392e-15,9.80665,1.0
69,92.409,0.982,-0.001417412492734764,0.00024119721238619987,-0.7072736830927062,-0.7069383777681183,0.00042385374538049905,-0.0003553707123619049,-0.00042277111387660867,0.0,1.2009682532858392e-15,9.80665,1.0
70,92.507,0.978,-0.0014192414783229376,0.00024148925677969625,-0.7072707310494848,-0.7069413274146534,0.000420653271721676,-0.0003955420725978928,-0.0004291269085370004,0.0,1.2009682532858392e-15,9.80665,1.0
71,92.591,0.98,-0.0014210503609761469,0.00024168112109672848,-0.7072682066474956,-0.7069438492831894,0.0004194153135176749,-0.00044274836871772554,-0.0004308628272265194,0.0,1.2009682532858392e-15,9.80665,1.0
72,92.71,0.986,-0.0014238880382210371,0.00024210474050063993,-0.7072647134731146,-0.7069473381993598,0.00043356950359884234,-0.0004787907050922549,-0.0004289991400437439,0.0,1.2009682532858392e-15,9.80665,1.0
73,92.798,0.992,-0.001426563968684852,0.00024273669033267377,-0.7072623046497584,-0.7069497424690946,0.00047743068693671366,-0.00044071827549487365,-0.00041854624834377317,0.0,1.2009682532858392e-15,9.80665,1.0
74,92.903,0.98,-0.0014297568402609946,0.00024349072138225955,-0.7072594304855266,-0.706952611200028,0.0005297650534193982,-0.00039529094472527345,-0.00040607404801994515,0.0,1.2009682532858392e-15,9.80665,1.0
75,93.004,0.974,-0.001432365854196334,0.00024333329077271928,-0.7072559622781073,-0.7069560756479982,0.0005134398612426583,-0.00038966820575296905,-0.00039287641993723766,0.0,1.2009682532858392e-15,9.80665,1.0
76,93.102,0.992,-0.0014347418944018744,0.0002428836105077652,-0.7072523604388841,-0.7069596743328483,0.00047517520177643675,-0.0003970194254070522,-0.00037966696894727617,0.0,1.2009682532858392e-15,9.80665,1.0
77,93.189,0.99,-0.0014367827337733836,0.00024252984768588845,-0.7072492327641293,-0.7069627992930205,0.0004462873237207521,-0.00040599814499728097,-0.0003685885539744055,0.0,1.2009682532858392e-15,9.80665,1.0
78,93.302,0.994,-0.0014387483759893908,0.00024252484615109525,-0.7072458692262183,-0.7069661601624754,0.0004595898139523348,-0.00044218934758100814,-0.000360683518927544,0.0,1.2009682532858392e-15,9.80665,1.0
79,93.396,0.984,-0.001440383511992087,0.00024252068558232922,-0.7072430712389297,-0.7069689559299865,0.00047065560228656963,-0.00047229530371259865,-0.00035410764906555417,0.0,1.2009682532858392e-15,9.80665,1.0
80,93.515,0.986,-0.0014427652118139992,0.000242546047152769,-0.7072393422043443,-0.7069726815113474,0.00048708025692030765,-0.0004699259828776124,-0.00036175275873392797,0.0,1.2009682532858392e-15,9.80665,1.0
81,93.613,0.988,-0.0014448251065352679,0.00024257661198036432,-0.7072362121727127,-0.7069758084959299,0.0005013698609545824,-0.00045518218702636704,-0.00037309530121274257,0.0,1.2009682532858392e-15,9.80665,1.0
82,93.702,0.984,-0.0014468613282069328,0.00024263330833141554,-0.707233253929895,-0.7069787636405249,0.0005100256223231556,-0.0004450409269193188,-0.0003826378077501427,0.0,1.2009682532858392e-15,9.80665,1.0
83,93.792,0.99,-0.0014494006806912935,0.00024277461566963896,-0.7072299268164254,-0.7069820866604488,0.000506238385103643,-0.00044421228149440145,-0.00039008687844034276,0.0,1.2009682532858392e-15,9.80665,1.0
84,93.902,0.978,-0.0014525043337277341,0.00024294732463857866,-0.7072258603444069,-0.7069861481292448,0.0005016095396131277,-0.0004431994926417247,-0.00039919129817280906,0.0,1.2009682532858392e-15,9.80665,1.0
85,94.004,0.986,-0.00036214150269807096,3.21934410811882e-05,-0.7072223185785643,-0.7069890934510605,-0.008646677219076429,0.014673276958638444,-0.0004084832587977892,0.0,1.2009682532858392e-15,9.80665,1.0
86,94.102,0.752,0.0010635946893544895,-0.00024324702591037225,-0.7072189948996769,-0.7069916393810897,-0.02059895398677349,0.03442514802597034,-0.0004177047183038711,0.0,1.2009682532858392e-15,9.80665,1.0
87,94.202,0.66,0.0024404797749147276,-0.0005345169141359706,-0.7072163460185935,-0.7069922840312949,-0.02704939586889662,0.04478350319376542,-0.000621737429938912,0.0,1.2170353903158514e-15,9.937848130278859,1.0
88,94.302,0.59,0.0035564093045005324,-0.0008599620378165658,-0.7072161833268534,-0.7069863895817774,-0.01426403621207908,0.022344494065959453,-0.0014773342958781573,0.0,1.2868925078376619e-15,10.508274783665351,1.0
89,94.401,0.566,0.004661179538790269,-0.0011821527102602936,-0.7072160222620308,-0.7069805540767551,-0.0016065301518321286,0.00012987502943578172,-0.0023243751931578487,0.0,1.356051054184241e-15,11.072997170517871,1.0
90,94.502,0.544,0.004192801229175852,-0.0009904787361684176,-0.7072056188004583,-0.7069935631145956,0.005431795435025756,-0.012193730752914217,-0.0021586274988949945,0.0,1.375617860551679e-15,11.2327722696,1.0
91,94.6,0.514,0.0031148041239944376,-0.0006011287378904574,-0.707191522751363,-0.7070135965307576,0.00996507301926555,-0.020110351964830343,-0.0015953033743426898,0.0,1.374676301441103e-15,11.225083856000001,1.0
92,94.702,0.466,0.0020445209251523603,-0.00024275737658415594,-0.7071803307225385,-0.7070299500593744,0.013949258118329172,-0.025955531155189587,-0.0010827007599691295,0.0,1.3656311294592501e-15,11.151224421686772,1.0
93,94.795,0.488,0.0012401319586883633,-7.14064490529481e-05,-0.7071816621022056,-0.7070299488736458,0.015147902722279671,-0.023345745127483625,-0.0008597282457154241,0.0,1.3306438856466557e-15,10.865531895180732,1.0
94,94.907,0.43,0.0002714054614414811,0.00013495165722117718,-0.7071832654841703,-0.7070299474456715,0.016591431707682302,-0.020202777008096067,-0.0005912022070443175,0.0,1.2885087103024597e-15,10.521472078313272,1.0
95,95.018,0.466,-0.000997611605604179,0.00034083424046401256,-0.7071902184892641,-0.7070210147939102,0.01536798640432591,-0.018164311706337134,0.0002735340207132191,0.0,1.2427581207129262e-15,10.14789016374503,1.0
96,95.102,0.5020161290322581,-0.0020157402171464473,0.000496892984721033,-0.7071964836198873,-0.7070125842412543,0.013945653440942826,-0.01682305202793436,0.001039906644236389,0.0,1.2073893664169537e-15,9.859082367729089,1.0
97,95.194,0.5745967741935484,-0.003046017585406625,0.0006527973038947484,-0.7072041594381048,-0.7070024390999999,0.012286994121968847,-0.014991761874407705,0.0017329809851944521,0.0,1.1726638334923992e-15,9.575526872800005,1.0
98,95.306,0.5645161290322581,-0.003724995417174225,0.0007407383285180568,-0.7072190250135004,-0.706983904932551,0.009583621583879222,-0.01030508397147099,0.001584521938115372,0.0,1.157598887723182e-15,9.452512255200011,1.0
99,95.396,0.5682730923694779,-0.004270602603416092,0.00081140522330465,-0.7072309705651576,-0.7069690114051367,0.007411268651485589,-0.006539003513753666,0.0014652244895696728,0.0,1.1454931277300605e-15,9.353661223200007,1.0
100,95.506,0.5612244897959183,-0.004675280744681507,0.0007995402911196265,-0.7072348768482948,-0.7069626837170679,0.006279874125517667,-0.0040505760507622245,0.0012764070549309973,0.0,1.1380337192855876e-15,9.292750530830041,1.0
101,95.597,0.5591836734693878,-0.004913030063794257,0.0007533681906715128,-0.7072341506673103,-0.7069618440691933,0.005907818395276367,-0.0027745573393994946,0.001104285931555218,0.0,1.1345779687385836e-15,9.264532186166011,1.0
102,95.703,0.5599173553719008,-0.00514006547815766,0.0006925214316148507,-0.7072348166471943,-0.7069596953125442,0.0051468290032269225,-0.001280747658972825,0.0009846873725161084,0.0,1.1317983165601534e-15,9.241834603643724,1.0
103,95.795,0.569327731092437,-0.0051508720035587235,0.0006133481304737254,-0.7072410370469407,-0.7069534611934882,0.0032636980952220986,4.3601022471376856e-05,0.001182788027391988,0.0,1.1340349375986614e-15,9.260098000404858,1.0
104,95.914,0.6197478991596639,-0.005164850009240534,0.0005109391866063989,-0.7072490829987866,-0.7069453974960137,0.0008279092033462651,0.0017566172517307448,0.0014390269179379654,0.0,1.136927958289775e-15,9.28372130708502,1.0
105,95.998,0.6140724946695096,-0.004995104213036753,0.00042779026130691084,-0.707247763080359,-0.7069479293194408,-0.000537058469721117,0.003361043608969148,0.0007167918116061321,0.0,1.1405576438467467e-15,9.313359938888889,1.0
106,96.102,0.652452025586354,-0.004732618625385668,0.0003216801998991999,-0.7072440898507084,-0.7069534596999811,-0.0021237721629736475,0.0054626157285556955,-0.00044049479119066056,0.0,1.1455140207650693e-15,9.353831827777778,1.0
107,96.195,0.6545842217484008,-0.004486392088143111,0.0002263517601111682,-0.7072427627423997,-0.7069564741233115,-0.003411683112382842,0.007007994888350417,-0.0011858582724818107,0.0,1.1498886715370857e-15,9.389553562199998,1.0
108,96.313,0.6603375527426161,-0.004084152356179449,0.00010194966440844761,-0.7072563640846619,-0.7069452213206564,-0.004023122392594816,0.00636158382333815,0.00012899741390720175,0.0,1.1549903846770443e-15,9.4312122114,1.0
109,96.392,0.6512605042016807,-0.003814856264441109,1.8663515590537855e-05,-0.7072654700680407,-0.7069376876646414,-0.00443247580900785,0.005928817093372379,0.0010092821530997046,0.0,1.158405938389389e-15,9.459102323999998,1.0
110,96.502,0.6631578947368421,-0.0034321239586029293,-6.481016186156134e-05,-0.7072687452715382,-0.7069363328320417,-0.004741939538379143,0.00531494014159626,0.0006937312549466938,0.0,1.1628363054525948e-15,9.495279016465863,1.0
111,96.592,0.6673684210526316,-0.0031153498601849483,-0.0001179146303859589,-0.7072670283016833,-0.7069394952736093,-0.00487333462278108,0.004807398568494733,-0.00028503763238828055,0.0,1.1663089847392046e-15,9.523635594779117,1.0
112,96.702,0.6428571428571429,-0.0027336895859483225,-0.00018607022649773302,-0.7072653894929103,-0.7069427893748129,-0.004923283198848364,0.0042646503262221795,-0.0009679604992270366,0.0,1.1705501293666155e-15,9.5582671688,1.0
113,96.798,0.6910229645093946,-0.0024209769549846417,-0.0002575727510127065,-0.7072656595895458,-0.7069435518793865,-0.004557630339637382,0.004077925663441411,0.0003347632065415979,0.0,1.1742395038407098e-15,9.588393197600002,1.0
114,96.902,0.6962025316455697,-0.0020822049381073364,-0.00033503381923725766,-0.7072659521942342,-0.706944377926008,-0.004161506408825503,0.003875640612095588,0.001746047221124221,0.0,1.1782363261876451e-15,9.6210297288,1.0
115,96.997,0.6814345991561181,-0.001820966237869366,-0.00036506751271630263,-0.7072531413125683,-0.7069578959489812,-0.0043383642907692,0.003935982557350254,0.0003018802205796338,0.0,1.1806241404651176e-15,9.640527712048192,1.0
116,97.105,0.7151898734177216,-0.001548064267558572,-0.0003788685586774576,-0.7072320445379827,-0.7069796394303356,-0.004808516954127924,0.0041270253181188215,-0.002705262157594763,0.0,1.1827077480370834e-15,9.657541659036145,1.0
117,97.194,0.7763713080168776,-0.0013175026913031303,-0.00039529941652134335,-0.7072206092700603,-0.7069915757734362,-0.004958088075742178,0.004220980618149053,-0.004587991744279924,0.0,1.1844909688507573e-15,9.672102762,1.0
118,97.302,0.7457264957264957,-0.001000859658283157,-0.000448117573668007,-0.7072454127813669,-0.7069671731986704,-0.003593247460201384,0.003922335285693407,-0.003002214387059214,0.0,1.187085060277855e-15,9.693285126,1.0
119,97.399,0.7329059829059829,-0.0007164673045522826,-0.0004955561036978762,-0.7072676900091144,-0.7069452560713345,-0.0023674183888361604,0.0036541075333953064,-0.001577951390296308,0.0,1.1894149386892293e-15,9.712310027,1.0
120,97.502,0.7489361702127659,-0.0005172340597721034,-0.0004722542710649932,-0.7072768056447234,-0.7069363457519743,-0.0016123046223074779,0.0026324174795301263,-0.000777233238332029,0.0,1.1911971755771054e-15,9.726863095599999,1.0
121,97.594,0.7974413646055437,-0.00037879326888181074,-0.0004231076155579601,-0.7072793562287208,-0.7069339104652032,-0.0011480190064758705,0.0014364586463199722,-0.0003357082209550457,0.0,1.192523044528733e-15,9.737689637199999,1.0
122,97.707,0.8123667377398721,-0.00023097145615729662,-0.00036622167489628297,-0.7072821589517894,-0.7069312246279679,-0.0007788133306569495,0.00020512652609398533,0.0004149335724081196,0.0,1.1940208194062732e-15,9.749919897211155,1.0
123,97.808,0.8199152542372882,-0.0001621052829837803,-0.00032528113105803467,-0.7072837243826066,-0.7069296932677843,-0.001021214989032534,-0.00021896350445168515,0.0016789743304577904,0.0,1.1949873356897942e-15,9.757812101593625,1.0
124,97.902,0.828693790149893,-9.801201290151026e-05,-0.00028717805065412783,-0.7072851813182186,-0.7069282680414748,-0.0012468165324711529,-0.0006136611566426284,0.002855408303295869,0.0,1.1958868656962393e-15,9.765157321513945,1.0
125,97.987,0.7974137931034483,-5.741857373235333e-05,-0.00024795603330461495,-0.7072788925072486,-0.7069345789968215,-0.0015736450088688883,-0.0005742784578397794,0.0020642858267617818,0.0,1.1964323253809987e-15,9.769611337848605,1.0
126,98.114,0.853448275862069,-1.0201825425278942e-05,-0.00018566522821514972,-0.707263611025634,-0.70694988851305,-0.0021570013665345718,-0.0002088107315237086,-0.0005529684374532616,0.0,1.1970399866087568e-15,9.774573268326693,1.0
127,98.183,0.8401727861771058,1.4737753981019146e-05,-0.000152036793928129,-0.7072553875487739,-0.7069581270500729,-0.0024574252065685735,-1.8047294149341242e-05,-0.0019535100074432542,0.0,1.1973701716916575e-15,9.777269434136546,1.0
128,98.302,0.8524229074889867,-2.5939913211087266e-05,-0.00011920740340981568,-0.7072504768672022,-0.706963043622576,-0.0010384161373128275,-0.0006035355800561138,-0.0018555827730570875,0.0,1.1979441284070833e-15,9.781956146385543,1.0
129,98.394,0.8480176211453745,-5.738819372935404e-05,-9.382669813515359e-05,-0.7072466803738863,-0.7069668446702254,5.863289101933284e-05,-0.0010561819859672267,-0.0017798743229434132,0.0,1.1983878596492611e-15,9.78557948694779,1.0
130,98.502,0.8137044967880086,-0.00012243636907723366,-6.505930151132036e-05,-0.7072422246543946,-0.7069712926029257,0.00040202569116771955,-0.0013518224306129966,-0.001607022870636266,0.0,1.1989060328987228e-15,9.789810692629482,1.0
131,98.597,0.8565310492505354,-0.00019254971055285988,-4.022558022352397e-05,-0.7072383057452776,-0.7069751986423182,0.0002711508808049101,-0.001503819578412569,-0.0014164829914239305,0.0,1.1993605826360222e-15,9.793522372908367,1.0
132,98.702,0.8189655172413793,-0.00027934061027071736,-1.785955474195996e-05,-0.7072340318877472,-0.7069794474523988,0.0002438737836200565,-0.0017117122141644217,-0.001246004896238446,0.0,1.1997672850325534e-15,9.79684335,1.0
133,98.821,0.8318965517241379,-0.0004224851746309268,-1.6988593035120876e-05,-0.7072294654700303,-0.7069839333521383,0.0007783112168544714,-0.002139488581102326,-0.0012460343763232228,0.0,1.1997672850325534e-15,9.79684335,1.0
134,98.902,0.7922912205567452,-0.0005199197100357791,-1.639575355399509e-05,-0.707226357236122,-0.706986986779692,0.0011420879571232894,-0.0024306640913709958,-0.0012460544425994156,0.0,1.1997672850325534e-15,9.79684335,1.0
135,98.994,0.7775377969762419,-0.0006240151342472301,-2.5508679188624145e-05,-0.7072293831156925,-0.7069838720172055,0.0011991435277601157,-0.002208959048494224,-0.0014913633968830658,0.0,1.1997672850325534e-15,9.79684335,1.0
136,99.102,0.816414686825054,-0.000742481656805991,-4.176528479806037e-05,-0.7072366593148852,-0.7069764763486459,0.001063835979663727,-0.0016349079994387272,-0.0019186628228764296,0.0,1.1997672850325534e-15,9.79684335,1.0
137,99.209,0.8275862068965517,-0.0008521341125601819,-5.9857744531664436e-05,-0.7072465646717321,-0.7069664505556811,0.0011378071373328925,-0.0012922431295737786,-0.0021362121216952604,0.0,1.1997672850325534e-15,9.79684335,1.0
138,99.302,0.8448275862068966,-0.0009285149737889993,-8.045410172471834e-05,-0.7072617866190543,-0.7069511188468081,0.0017122353329323808,-0.0015487997117452582,-0.0018206354929133932,0.0,1.1997672850325534e-15,9.79684335,1.0
139,99.393,0.838012958963283,-0.0010032532358515978,-0.0001006075265050163,-0.7072766812126705,-0.7069361168521043,0.0022743102340027892,-0.0017998389480635617,-0.0015118454582989103,0.0,1.1997672850325534e-15,9.79684335,1.0
140,99.502,0.8643326039387309,-0.0010734146628475104,-9.335330875243455e-05,-0.7072836143556814,-0.7069290795285145,0.0024198694266378907,-0.0016614725082181466,-0.0013851464972831305,0.0,1.1997672850325534e-15,9.79684335,1.0
141,99.589,0.8818380743982495,-0.0011211446308319892,-7.415212251642438e-05,-0.7072844885495714,-0.7069281326323109,0.002310625115409492,-0.0013634717622771817,-0.0013878990402445195,0.0,1.1997672850325534e-15,9.79684335,1.0
142,99.702,0.925764192139738,-0.0011838852235822668,-4.8485056897443694e-05,-0.7072855351601252,-0.7069269876406333,0.0020669035532834557,-0.0011572563748034964,-0.0012938124932389524,0.0,1.1998677644481669e-15,9.797663826693226,1.0
143,99.802,0.8973799126637555,-0.0012423020005227375,-2.294999531350843e-05,-0.7072861169488669,-0.7069263034684807,0.0014564328761103012,-0.0016758841753703913,-0.0008319206737571503,0.0,1.2003462378558506e-15,9.801570858565738,1.0
144,99.902,0.9023861171366594,-0.0013007187774632,2.585066270423207e-06,-0.7072866987376086,-0.7069256192963281,0.0008459621989372335,-0.002194511975937212,-0.0003700288542754142,0.0,1.200824711263534e-15,9.805477890438246,1.0
145,99.986,0.8937093275488069,-0.001327439901588732,1.2371746096333431e-05,-0.7072865716772945,-0.7069256983242613,-0.00012249633483591674,-0.001926419414114191,-0.00034013382298872264,0.0,1.2009682532858392e-15,9.80665,1.0
146,100.102,0.9175704989154013,-0.0013471944675337946,1.6939055664568083e-05,-0.7072859238023935,-0.7069263089989123,-0.001809474304318453,-0.0010162900690920517,-0.0005735784838907454,0.0,1.2009682532858392e-15,9.80665,1.0
147,100.205,0.8704103671706264,-0.0013622730317641792,1.0396166792850883e-05,-0.7072865416598006,-0.7069256616679851,-0.0026674302694356397,-0.00022122880909594415,-0.000642162360331379,0.0,1.2009682532858392e-15,9.80665,1.0
148,100.302,0.8900862068965517,-0.0013684081790605093,-3.0481984569251792e-05,-0.7072910317800314,-0.7069211554450148,-0.001379113731322248,0.00048470281763007253,-0.00025242293346109475,0.0,1.2009682532858392e-15,9.80665,1.0
149,100.413,0.9264069264069265,-0.001375428811533628,-7.726007530319608e-05,-0.7072961699588522,-0.7069159988393475,9.514539992065089e-05,0.0012925214832648561,0.0001935675447099764,0.0,1.2009682532858392e-15,9.80665,1.0
150,100.502,0.9523809523809523,-0.0013844312137568046,-8.571447594389282e-05,-0.7072976227445551,-0.7069145271547705,-0.00010732087386450826,0.0007971775262576059,0.0001793411503308512,0.0,1.2009682532858392e-15,9.80665,1.0
151,100.582,0.9092872570194385,-0.0013932919701304266,-8.669336530215939e-05,-0.7072983208487981,-0.7069138111229367,-0.0006048254621403986,9.14405364417629e-05,8.182095357243675e-05,0.0,1.2009682532858392e-15,9.80665,1.0
152,100.702,0.9352051835853131,-0.0014096764081679611,-8.980497578145165e-05,-0.707299774492208,-0.7069123236861857,-0.0010373093156017194,-0.0008562363494359527,-2.1007821107862558e-05,0.0,1.2009682532858392e-15,9.80665,1.0
153,100.791,0.9164882226980728,-0.0014332992001067175,-9.820657035894531e-05,-0.7073023600005307,-0.7069096875197197,-0.00019449319121950812,-0.0011477364857407951,6.38602260335592e-05,0.0,1.2009682532858392e-15,9.80665,1.0
154,100.905,0.8881578947368421,-0.0014635576077586092,-0.0001089681634132636,-0.7073056717752362,-0.7069063108570554,0.0008850690355173144,-0.0015211186828054445,0.00017256761225965578,0.0,1.2009682532858392e-15,9.80665,1.0
155,100.986,0.8903508771929824,-0.0014674780019949517,-0.00012028313072210287,-0.7073058241389888,-0.7069061485553056,0.001095918535933904,-0.0010663976403976784,-5.17642762293312e-05,0.0,1.2009682532858392e-15,9.80665,1.0
156,101.102,0.9426751592356688,-0.0014611915483910133,-0.00013897087602357937,-0.7073045524556958,-0.7069074304909129,0.0010213274861207264,7.225495468145553e-05,-0.0005771911295364752,0.0,1.2009682532858392e-15,9.80665,1.0
157,101.183,0.8736616702355461,-0.0014566588067395942,-0.0001520841170459006,-0.7073036583039609,-0.7069083320648697,0.000963445502242767,0.0008540289889510907,-0.0009294017095631981,0.0,1.2009682532858392e-15,9.80665,1.0
158,101.302,0.8666666666666667,-0.0014331852942681572,-0.0001788758739601602,-0.7073016199798264,-0.7069104122366001,0.0001970997157816649,0.0004370985053745527,0.00027877757314688164,0.0,1.2009682532858392e-15,9.80665,1.0
159,101.391,0.89587852494577,-0.0014156294740164104,-0.00019891340644225328,-0.707300095518919,-0.7069119679952891,-0.0003760496539245296,0.00012527654706941506,0.0011823738434090301,0.0,1.2009682532858392e-15,9.80665,1.0
160,101.505,0.9349240780911063,-0.0014012906444940273,-0.00018857309342573388,-0.7073003400214434,-0.7069117545247905,-0.0010857692451292172,-0.00013706438421861873,0.0011602165659886177,0.0,1.2009682532858392e-15,9.80665,1.0
161,101.587,0.896328293736501,-0.0013945264483163553,-0.0001654498232996973,-0.7073014730533442,-0.7069106398685415,-0.001585628225826875,-0.00026605313110205595,0.0006304200381268691,0.0,1.2009682532858392e-15,9.80665,1.0
162,101.708,0.8426724137931034,-0.0013823698996511158,-0.0001338819252176535,-0.7073032030826335,-0.7069089402469887,-0.002089407008177056,-0.0003503232028265963,-5.06547872359645e-05,0.0,1.2009682532858392e-15,9.80665,1.0
163,101.785,0.8771551724137931,-0.0013661656203960689,-0.00012373231164466503,-0.7073045302601589,-0.7069076452374886,-0.0014997287544700531,8.974252104407634e-06,-9.204349040992525e-05,0.0,1.2009682532858392e-15,9.80665,1.0
164,101.902,0.8626609442060086,-0.001341543533735801,-0.00010831017154025307,-0.7073065468805546,-0.7069056774957806,-0.0006037241352009157,0.0005549197355710317,-0.00015493281860932403,0.0,1.2009682532858392e-15,9.80665,1.0
165,101.997,0.8819742489270386,-0.0013180149528269115,-9.9942885139017e-05,-0.7073031835193044,-0.7069090878225153,-0.00013601900369395402,0.000620159697718921,-0.00024284973740577455,0.0,1.2009682532858392e-15,9.80665,1.0
166,102.102,0.8507462686567164,-0.0012902057426381044,-9.281436809624365e-05,-0.7072969151107305,-0.7069154118527999,0.0002483784966170851,0.0004994160635396818,-0.00035882054129615626,0.0,1.2009682532858392e-15,9.80665,1.0
167,102.196,0.9227467811158798,-0.0012662815436460298,-8.94388404933076e-05,-0.7072930810677917,-0.706919292266882,0.0004451087877962515,0.00046479605918142627,-0.0004005078661132242,0.0,1.2009682532858392e-15,9.80665,1.0
168,102.302,0.8626609442060086,-0.0012455643787611776,-0.00010500360396408642,-0.7073002125009877,-0.7069121910641054,-0.00028283860119266357,0.0008992078750540435,-4.713882408831913e-05,0.0,1.2009682532858392e-15,9.80665,1.0
169,102.399,0.8747346072186837,-0.001226606218442023,-0.00011924683091375936,-0.7073067384351389,-0.70690569279364,-0.0009489791363994061,0.001296735668824212,0.0002762271860665008,0.0,1.2009682532858392e-15,9.80665,1.0
170,102.502,0.8961864406779662,-0.0012397510250921314,-0.0001429354284316212,-0.7073029967501884,-0.7069094081424457,-0.0004014926994892556,0.0013471294373702607,0.00011125046125566904,0.0,1.2009682532858392e-15,9.80665,1.0
171,102.589,0.9110169491525424,-0.0012635216859965598,-0.00016620462120428843,-0.7072957738258417,-0.7069165876129768,0.0005386515274746866,0.0012481829635651155,-0.00022162155165993076,0.0,1.2009682532858392e-15,9.80665,1.0
172,102.702,0.879492600422833,-0.0012968933785019233,-0.0001915335254282234,-0.7072869657006151,-0.7069253346658539,0.0016312661784584762,0.0009173741760518807,-0.0006585073022425851,0.0,1.2009682532858392e-15,9.80665,1.0
173,102.79,0.9127659574468086,-0.0013325030402198033,-0.0001924018425019885,-0.7072823153820793,-0.7069299195760744,0.0019870948067017284,-0.00011964145969286925,-0.001016208461119264,0.0,1.2009682532858392e-15,9.80665,1.0
174,102.903,0.8571428571428571,-0.0013782290831075308,-0.00019351684056261864,-0.7072763439503231,-0.7069358070176076,0.0024440111134231336,-0.0014512638101377047,-0.0014755292674040461,0.0,1.2009682532858392e-15,9.80665,1.0
175,102.998,0.8593073593073594,-0.0014067252170551047,-0.00017569770244946196,-0.7072800260217117,-0.7069320711324164,0.002544505158439278,-0.0016003612754866411,-0.001957910040393485,0.0,1.2009682532858392e-15,9.80665,1.0
176,103.106,0.8891257995735607,-0.0014341525236214524,-0.00014607086744559654,-0.7072885589425333,-0.7069234854244847,0.00251706716604531,-0.0012851218366995679,-0.0025543678291141568,0.0,1.2009682532858392e-15,9.80665,1.0
177,103.19,0.8822269807280514,-0.0014532316196494695,-0.00012379945430878903,-0.7072938345314679,-0.7069181737163032,0.0024319222457707293,-0.0010580467926338349,-0.003035872360691394,0.0,1.2009682532858392e-15,9.80665,1.0
178,103.302,0.9250535331905781,-0.0014501292030546745,-0.00010387885969086834,-0.707283627704756,-0.7069283949243484,0.0015102083981036766,-0.000984688424505291,-0.003900722032412922,0.0,1.2009682532858392e-15,9.80665,1.0
179,103.398,0.8993576017130621,-0.001447469988830565,-8.680406430408244e-05,-0.7072748789961456,-0.7069371559598159,0.0007201679572463532,-0.0009218098232522653,-0.004642021751031233,0.0,1.2009682532858392e-15,9.80665,1.0
180,103.52,0.8765957446808511,-0.0014457832524929616,-6.111823505802478e-05,-0.7072782953295355,-0.7069337437580799,0.0010207383935339344,-0.0008435238455422266,-0.003950879581272669,0.0,1.2009682532858392e-15,9.80665,1.0
181,103.596,0.8297872340425532,-0.0014451399027339592,-4.41577072526515e-05,-0.7072839217773884,-0.7069281171080429,0.0015219725794158973,-0.0007951459824107581,-0.003127241827547534,0.0,1.2009682532858392e-15,9.80665,1.0
182,103.702,0.8678038379530917,-0.0014467419999119853,-2.43324585530252e-05,-0.7072910534051451,-0.7069209800522008,0.0020722350105643306,-0.0007351985480636371,-0.0020921551762148943,0.0,1.2009682532858392e-15,9.80665,1.0
183,103.794,0.9104477611940298,-0.0014574604517290843,-2.1420325058492105e-05,-0.707294571751107,-0.7069174377894673,0.0019943863525986715,-0.0007112598586827532,-0.0016180078350007804,0.0,1.2009682532858392e-15,9.80665,1.0
184,103.902,0.9098712446351931,-0.0014700429821230708,-1.8001733564909597e-05,-0.7072987019833231,-0.7069132794810409,0.001902998797595502,-0.0006831579189747576,-0.0010614000866189658,0.0,1.2009682532858392e-15,9.80665,1.0
185,103.993,0.8905579399141631,-0.0014583832129094036,-2.7883086307286642e-05,-0.7072943378980884,-0.7069176689264646,0.0019100835982946618,-0.0005916890146355008,-0.0015929591010918989,0.0,1.2009682532858392e-15,9.80665,1.0
186,104.102,0.892933618843683,-0.0014313031161316777,-4.723677159376246e-05,-0.7072844897088456,-0.7069275763672785,0.0019681041779380966,-0.00044219317385881863,-0.002819070220640398,0.0,1.2009682532858392e-15,9.80665,1.0
187,104.191,0.9042553191489362,-0.0014102625757303556,-6.261384208334197e-05,-0.7072771768886315,-0.7069349349496393,0.0019635763172439562,-0.0003373385535601777,-0.0037251172819170973,0.0,1.2009682532858392e-15,9.80665,1.0
188,104.302,0.9491525423728814,-0.0013996643353047101,-7.557574559047298e-05,-0.7072786977362274,-0.7069334329335123,0.0011996367334268182,-0.00045801364105143,-0.003465877418559647,0.0,1.2009682532858392e-15,9.80665,1.0
189,104.404,0.8726114649681529,-0.0013899254116703345,-8.748668394837548e-05,-0.7072800952718562,-0.7069320527024766,0.0004976381969463029,-0.0005689042619893221,-0.003227657003582563,0.0,1.2009682532858392e-15,9.80665,1.0
190,104.502,0.8938428874734607,-0.0013806645878913554,-8.70688677819907e-05,-0.7072808126570544,-0.7069313531612885,-0.00031105465197459807,-0.0009824025898705529,-0.002176608363632278,0.0,1.2009682532858392e-15,9.80665,1.0
191,104.598,0.9662447257383966,-0.001371632359552955,-8.177598510372081e-05,-0.7072812579393323,-0.7069309258603351,-0.001158505128114414,-0.0015138399496208437,-0.0008085119375028848,0.0,1.2009682532858392e-15,9.80665,1.0
192,104.706,0.8874734607218684,-0.0013722033760242096,-7.264547205580286e-05,-0.7072824713233137,-0.7069297112204894,-0.0017442611726001182,-0.0019396702051162795,0.0006712116640992013,0.0,1.2009682532858392e-15,9.80665,1.0
193,104.799,0.9087048832271762,-0.0014068491188097346,-5.467582399416617e-05,-0.7072857834319094,-0.7069263296577603,-0.0010787421287968778,-0.0017588731907308107,0.0017564336145296656,0.0,1.2009682532858392e-15,9.80665,1.0
194,104.906,0.9040511727078892,-0.0014467103497565197,-3.4001067622176476e-05,-0.7072895941374981,-0.7069224390425773,-0.00031303742248565687,-0.0015508594214916245,0.0030050223101861654,0.0,1.2009682532858392e-15,9.80665,1.0
195,104.996,0.8699360341151386,-0.0014422358709373037,-3.075594656298121e-05,-0.7072940053499607,-0.7069180350602505,0.0003349468732563712,-0.0011867002147599123,0.0029917668488129456,0.0,1.2009682532858392e-15,9.80665,1.0
196,105.11,0.8768577494692145,-0.0014159382056812518,-3.432409868179572e-05,-0.7073002475421897,-0.7069118424385492,0.0011578623684998764,-0.0006227263797211882,0.0023976641751647754,0.0,1.2009682532858392e-15,9.80665,1.0
197,105.198,0.9014989293361885,-0.0013958467316953283,-3.639772550817115e-05,-0.7073042539598179,-0.7069078740952988,0.0015846929716305418,-0.00020877926692853697,0.0018702594229067743,0.0,1.2009682532858392e-15,9.80665,1.0
198,105.31,0.8843683083511777,-0.0013716782541200517,-3.445738876533131e-05,-0.7073038897061102,-0.7069082855251477,0.0007259520669902429,0.00017409140433471883,0.0007361861662431623,0.0,1.2009682532858392e-15,9.80665,1.0
199,105.392,0.9282700421940928,-0.0013539834758952984,-3.3036785078609503e-05,-0.7073036230203601,-0.7069085867505729,9.723104752155172e-05,0.0004544074315095584,-9.411746809970863e-05,0.0,1.2009682532858392e-15,9.80665,1.0
200,105.513,0.9094736842105263,-0.0013425695163653243,-3.706199715310331e-05,-0.7073042949703047,-0.7069079362892198,0.00022392664686779636,-0.0002318119449127551,0.0004073324057067188,0.0,1.2009682532858392e-15,9.80665,1.0
201,105.603,0.9389473684210526,-0.0013415192031268367,-4.3154633902460214e-05,-0.7073053341089818,-0.7069068982118297,0.0008519200782756923,-0.0012989685637875828,0.0016543410602025033,0.0,1.2009682532858392e-15,9.80665,1.0
202,105.702,0.8930817610062893,-0.0013418369167199978,-4.8946752378694986e-05,-0.7073061878363556,-0.7069060430526478,0.0013433348988182814,-0.001998488837853064,0.002580677404999726,0.0,1.2009682532858392e-15,9.80665,1.0
203,105.79,0.93125,-0.0013480115614247976,-5.045617434311269e-05,-0.7073057894044482,-0.7069064298149417,0.0009826362566090763,-0.0007228766102342526,0.0016225947886704447,0.0,1.2009682532858392e-15,9.80665,1.0
204,105.902,0.9416666666666667,-0.0013558702001399963,-5.2377256843280426e-05,-0.7073052823092933,-0.7069069220578612,0.0005235652574337874,0.0009006298612803734,0.0004032169133424378,0.0,1.2009682532858392e-15,9.80665,1.0
205,106.0,0.9081419624217119,-0.0013485280310956292,-5.591241707610493e-05,-0.7073086981721367,-0.7069035178045755,0.00018237357912584344,0.0010663188898470141,0.0010000042151660084,0.0,1.2009682532858392e-15,9.80665,1.0
206,106.102,0.9287211740041929,-0.0013337109943086629,-6.052757633195451e-05,-0.707314201145041,-0.706898039331845,-0.00014221597602592946,0.0006055107647552801,0.0024607384577394445,0.0,1.2009682532858392e-15,9.80665,1.0
207,106.202,0.8972746331236897,-0.0013132965852299524,-6.449736487658736e-05,-0.7073184962031247,-0.7068937792456713,-0.0002889513623110216,0.00024583239666922023,0.003534494433552023,0.0,1.2009682532858392e-15,9.80665,1.0
208,106.302,0.8891213389121339,-0.0012660595095492658,-6.593937863328294e-05,-0.7073177800890939,-0.7068945802246576,0.0003455439602033279,0.0003056947448576602,0.0029758289456366964,0.0,1.2009682532858392e-15,9.80665,1.0
209,106.401,0.9056603773584906,-0.001219294804625395,-6.736697225241128e-05,-0.7073170711362032,-0.7068953731938539,0.0009736943294924138,0.0003649584695642045,0.0024227501126006293,0.0,1.2009682532858392e-15,9.80665,1.0
210,106.502,0.8881856540084389,-0.0012034769714558144,-7.852973751977304e-05,-0.7073030117391168,-0.7069094665083149,0.0011791390406103383,0.00022742272788656064,0.0005706490920251012,0.0,1.2009682532858392e-15,9.80665,1.0
211,106.596,0.9071729957805907,-0.0011965467659057654,-9.129016981445991e-05,-0.7072866686486775,-0.7069258285112416,0.0012639748553435008,5.104719699981292e-05,-0.0014677188980082674,0.0,1.2009682532858392e-15,9.80665,1.0
212,106.702,0.9368421052631579,-0.0011908408617890684,-0.00010392770478015959,-0.707273685278702,-0.7069388269734727,0.0012615646928571418,-0.00013907738976120084,-0.0029373378288818884,0.0,1.2009682532858392e-15,9.80665,1.0
213,106.789,0.8832271762208068,-0.0011940837744105533,-0.00010771608602932831,-0.7072834965059567,-0.7069290047024608,0.0008909977328744724,-0.0002621750813905145,-0.0010281196318611646,0.0,1.2009682532858392e-15,9.80665,1.0
214,106.902,0.9065817409766455,-0.0011982958333327117,-0.00011263662719204149,-0.707296239824115,-0.7069162470401121,0.0004096866239314852,-0.0004220605889090417,0.0014516695205909359,0.0,1.2009682532858392e-15,9.80665,1.0
215,106.992,0.8832271762208068,-0.0012081448450930996,-0.00011493386717910761,-0.7072997852464816,-0.7069126825257492,-6.116334348950402e-06,-0.0002449817494488984,0.0021555834859609607,0.0,1.2009682532858392e-15,9.80665,1.0
216,107.102,0.8789808917197452,-0.0012245618070667974,-0.00011664799414683444,-0.7072996651854654,-0.7069127740817359,-0.0005362072205171295,0.00017672819271686164,0.002158756017684937,0.0,1.2009682532858392e-15,9.80665,1.0
217,107.192,0.8919491525423728,-0.00123603769021598,-0.00011904830504037983,-0.7072991721129323,-0.7069132472242362,-0.0008067206405103898,0.00044582313997673537,0.0021219817809760787,0.0,1.2009682532858392e-15,9.80665,1.0
218,107.302,0.9004237288135594,-0.0012255572232868436,-0.00013448277840744034,-0.7072936229910172,-0.7069188144847515,0.000907151417806888,-0.00017664824239914834,0.0015838175760581638,0.0,1.2009682532858392e-15,9.80665,1.0
219,107.406,0.9177215189873418,-0.0012156484181902068,-0.00014907537140902293,-0.7072883765484792,-0.7069240780765115,0.002527539545670283,-0.0007651666402817246,0.0010750077823176568,0.0,1.2009682532858392e-15,9.80665,1.0
220,107.506,0.9071729957805907,-0.0012282816564360977,-0.00013525051839847582,-0.7072866692587703,-0.7069257663728825,0.0018952200990169836,-0.0012271481966599936,0.000665696502663185,0.0,1.2009682532858392e-15,9.80665,1.0
221,107.596,0.8938428874734607,-0.0012474078982663672,-0.00011305848333668383,-0.7072863007763345,-0.7069261053422733,0.0005594978630541845,-0.0016065660659224054,0.000325291468296177,0.0,1.2009682532858392e-15,9.80665,1.0
222,107.706,0.8726114649681529,-0.001276159360148768,-9.332865043759702e-05,-0.7072876824229314,-0.7069246748129075,-0.0007198738528513137,-0.0018498501613653236,7.770813798776048e-06,0.0,1.2009682532858392e-15,9.80665,1.0
223,107.808,0.8625792811839323,-0.001322755962882072,-0.00010245786291285089,-0.7072957586926809,-0.7069165056973371,-0.0005962322175037029,-0.001257776020793203,7.87990866228989e-05,0.0,1.2009682532858392e-15,9.80665,1.0
224,107.903,0.8858350951374208,-0.001366154759545441,-0.00011096056080646925,-0.707303280708624,-0.7069088972073452,-0.00048107579242505165,-0.0007063344192799808,0.00014495287013555904,0.0,1.2009682532858392e-15,9.80665,1.0
225,107.999,0.9404255319148936,-0.0013711935296583698,-0.0001335064577681418,-0.7073110484166741,-0.7069011114361872,-0.0003726822827326825,-1.9788600140837925e-05,-0.00033070722899107915,0.0,1.2009682532858392e-15,9.80665,1.0
226,108.102,0.9212765957446809,-0.0013585732876978866,-0.00016417637813919718,-0.7073194598481978,-0.7068927128169923,-0.00026008868483322063,0.0007768641534424546,-0.0010929908772718895,0.0,1.2009682532858392e-15,9.80665,1.0
227,108.206,0.923728813559322,-0.0013550158286488056,-0.00019002198001185505,-0.7073258400001958,-0.7068863299423026,-0.0002029741844310722,0.001222749758999729,-0.0016160565201170933,0.0,1.2009682532858392e-15,9.80665,1.0
228,108.307,0.9371069182389937,-0.0013829761296159353,-0.0001976037350670134,-0.7073248095231764,-0.7068873042176238,-0.0003409927900587448,0.0004296437132198267,-0.0012805602583752214,0.0,1.2009682532858392e-15,9.80665,1.0
229,108.405,0.9088983050847458,-0.0014101059265939425,-0.00020496028947696897,-0.7073238096543853,-0.706888249554074,-0.00047491183314302105,-0.00033990472723987946,-0.0009550292321306334,0.0,1.2009682532858392e-15,9.80665,1.0
230,108.507,0.8813559322033898,-0.0014448447367545172,-0.00020610429450106644,-0.7073219784300565,-0.7068900105680072,-0.0005945719067422524,-0.0006896420681183437,-0.0005641128588748163,0.0,1.2009682532858392e-15,9.80665,1.0
231,108.603,0.8406708595387841,-0.0014799710117340912,-0.00020474591482387845,-0.7073199593464989,-0.7068919585415051,-0.0006998181125676403,-0.0008500986021894609,-0.00017671240283269882,0.0,1.2009682532858392e-15,9.80665,1.0
232,108.71,0.9331941544885177,-0.001522366584277777,-0.00020127343558705394,-0.7073160620854867,-0.7068957692922008,-0.000727797970674694,-0.0010986254450731504,-1.0314295650386209e-05,0.0,1.2009682532858392e-15,9.80665,1.0
233,108.815,0.9327731092436975,-0.0015734031048842293,-0.0001921715060273235,-0.7073074493967836,-0.7069042760011628,-0.0004955328629529696,-0.0015451206958719374,-0.0006186749863748356,0.0,1.2009682532858392e-15,9.80665,1.0
234,108.907,0.8718487394957983,-0.0016181208181774993,-0.00018419648203213152,-0.7072999030409676,-0.7069117294985391,-0.00029202438761585033,-0.0019363355822860926,-0.0011517148296762304,0.0,1.2009682532858392e-15,9.80665,1.0
235,109.013,0.9035639412997903,-0.0016288469697347424,-0.00016073514481979313,-0.7073035798171403,-0.7069080321007033,-4.449873231350673e-05,-0.001181751507334378,-0.0010717582600191142,0.0,1.2009682532858392e-15,9.80665,1.0
236,109.105,0.8763102725366876,-0.0016254458155174928,-0.00013592562749069564,-0.7073106254757395,-0.7069009954529158,0.00017440028022975136,-0.00015129315201191178,-0.0007861028751358337,0.0,1.2009682532858392e-15,9.80665,1.0
237,109.199,0.9166666666666666,-0.0015478204028205934,-0.00010466573272036199,-0.7073165651957383,-0.7068951653071182,-0.001290174642012524,0.002147861554877939,-0.0005633639714990984,0.0,1.2009682532858392e-15,9.80665,1.0
238,109.302,0.8763102725366876,-0.0009984780891824278,-3.340149354958953e-05,-0.7073151898540069,-0.7068972891550919,-0.013465671401740988,0.012470697855061387,-0.0007521267980337282,0.0,1.2009682532858392e-15,9.80665,1.0
239,109.416,0.740506329113924,-0.00039046814981601825,4.5473489610281086e-05,-0.7073136676311197,-0.7068996398217812,-0.02694146393192359,0.023895972983417817,-0.0009610487613827001,0.0,1.2009682532858392e-15,9.80665,1.0
240,109.521,0.6983122362869199,0.0038431856799319335,0.0001395592242143865,-0.7073106645801153,-0.7068691227752766,-0.05199146453349887,0.05046767281647085,-0.00015671533398607944,0.0,1.2005568980179813e-15,9.803291029330708,1.0
241,109.601,0.6528066528066528,0.007647923390620717,0.00021462293906003777,-0.7073081241663016,-0.7068407198286991,-0.07306938994617167,0.07324257766549232,0.0006132351081473432,0.0,1.2001786403004112e-15,9.80020232066929,1.0
242,109.728,0.6131078224101479,0.014841359371166322,0.00020806852088688625,-0.7072964960619575,-0.7067269331323446,-0.09535767328039367,0.09849269217566431,0.00215406554160994,0.0,1.199378307460639e-15,9.793667107085021,1.0
243,109.799,0.6405919661733616,0.0202653754744724,5.1538001566479483e-05,-0.7072807599692863,-0.7065797883091302,-0.09423239330048497,0.09934896191484055,0.003402794598175751,0.0,1.1986878722704907e-15,9.788029275910931,1.0
244,109.932,0.6352459016393442,0.030425856344043684,-0.00024168114025901116,-0.7072512824999162,-0.7063041508233907,-0.09212447446488176,0.10095296015864924,0.005741963112587284,0.0,1.1973945218438753e-15,9.777468268218623,1.0
245,110.022,0.6734279918864098,0.034738307684624894,-0.0003452108296677093,-0.7072274870698289,-0.7061096919940676,-0.07678388367848539,0.08116515071327905,0.0053297712456479305,0.0,1.196949076661297e-15,9.773830932270917,1.0
246,110.109,0.6606425702811245,0.038821575246192536,-0.00044212655347130485,-0.7072043565450656,-0.7059214505516408,-0.06149083993349609,0.06134116085639762,0.0048648161791354574,0.0,1.1965328047966124e-15,9.770431814541833,1.0
247,110.202,0.6606425702811245,0.042807146317586024,-0.0005189964554813492,-0.707185321856514,-0.7057295295316047,-0.0466252890825279,0.04283392319083267,0.00415012760087864,0.0,1.1963181042091165e-15,9.7686786512,1.0
248,110.331,0.6632653061224489,0.04580353097648589,-0.000447191157864451,-0.7071969089203489,-0.7055254150486745,-0.03589951775968108,0.03507886782288575,0.0017057660792489317,0.0,1.1975575034465074e-15,9.778799114,1.0
249,110.402,0.6775510204081633,0.04745270392828337,-0.0004076704126644554,-0.7072032862965681,-0.7054130729689222,-0.029996186256409194,0.0308105815351013,0.0003604198154063135,0.0,1.1982396534143736e-15,9.784369291199999,1.0
250,110.508,0.6435845213849287,0.04883035816411518,-0.0004497801813824871,-0.7072144708075317,-0.7053100177385443,-0.011121120124339436,0.013720982270429607,-0.0006319037645617141,0.0,1.1989135847079283e-15,9.789872357831324,1.0
251,110.599,0.5950920245398773,0.04957341037554862,-0.0005269218874341523,-0.7072247469271158,-0.7052477615866041,0.009161918727030198,-0.005295023808338038,-0.0010718296858927138,0.0,1.1993524927844305e-15,9.793456314257028,1.0
252,110.71,0.6012269938650306,0.048696206044992314,-0.0006109142466487952,-0.7072460124567875,-0.7052721943166268,0.03864799886941558,-0.03436773847788194,-0.0019514735788105295,-0.0009806649999996656,1.2002476723338676e-15,9.800766009999998,1.0
253,110.793,0.5958762886597938,0.04345250011360375,-0.0006477304186714376,-0.70728437184317,-0.7055486447880159,0.0729020788669603,-0.07122486485541049,-0.0034915874674916938,-0.0042364728000001605,1.2018425581742313e-15,9.8137892412,1.0
254,110.906,0.5652173913043478,0.03631347878532887,-0.0006978536408227381,-0.7073365960680037,-0.7059250171165337,0.11953715163469465,-0.12140384414047165,-0.0055883690267801815,-0.008669078600000144,1.2040139087761721e-15,9.831519664400002,1.0
255,111.017,0.5859213250517599,0.02569707889530675,-0.000552289618100102,-0.707371062969665,-0.7062628917130792,0.14070571446418692,-0.14326626992225577,-0.00640982211381193,-0.00980665,1.2049650756327744e-15,9.8392865312,1.0
256,111.102,0.5445134575569358,0.01659144179521162,-0.00038806598537248277,-0.707392897836516,-0.7065130026250178,0.15024257951974887,-0.15257961070537585,-0.006703529253602014,-0.00980665,1.2053734048388916e-15,9.8426207922,1.0
257,111.198,0.5720164609053497,0.006105589114927177,-0.00022009117502666683,-0.707414873737477,-0.7067392154880864,0.159029734858954,-0.16140470443018898,-0.0064348911094776135,-0.00980665,1.2058965293849803e-15,9.846892428286852,1.0
258,111.302,0.5647773279352226,-0.006650137804270777,-0.00015916907027334733,-0.7074201121029399,-0.7065951107981956,0.15482723172679833,-0.15925182740526841,-0.0019914148880011816,-0.00980665,1.2068917540729623e-15,9.855019054581673,1.0
259,111.398,0.5020242914979757,-0.018424654960450686,-0.00010293328127029659,-0.7074249475172134,-0.7064620910844502,0.15094799806634784,-0.1572645563053422,0.0021102554702837747,-0.00980665,1.2078104230157146e-15,9.862520555776891,1.0
260,111.521,0.5171717171717172,-0.029248170532025785,-4.8437364718042053e-05,-0.7074433830706485,-0.706112562427102,0.12085515895043188,-0.12511611008740026,0.0037046847004727833,-0.006458998393574479,1.2081740628055542e-15,9.8654899,1.0
261,111.599,0.5282258064516129,-0.034903417560092985,-1.8856170534439065e-05,-0.7074585440089102,-0.7058401359375575,0.09464962822366438,-0.09633702997222968,0.0036779365550921265,-0.003387035742971895,1.2081740628055542e-15,9.8654899,1.0
262,111.705,0.534020618556701,-0.04162907392526994,-1.3791111392615676e-05,-0.7074806091599407,-0.7055036627460276,0.06219007238745761,-0.06065380193293173,0.0035175388306379653,0.0,1.208270140265817e-15,9.866274431999999,1.0
263,111.807,0.5793814432989691,-0.04413003232985073,-0.00015429664014021577,-0.7075078903081253,-0.7053195245758183,0.04400205270946028,-0.04049632019549611,0.002849917314946657,0.0,1.2087601353131578e-15,9.8702755452,1.0
264,111.917,0.6033057851239669,-0.04682714433479068,-0.00030582221035820934,-0.7075373111542067,-0.7051209441961808,0.02438752168416989,-0.018757859498262537,0.0021299333274364535,0.0,1.2092885613446036e-15,9.8745904712,1.0
265,111.999,0.6384297520661157,-0.0472823947394861,-0.0003795116756604182,-0.7075637250555842,-0.7050658094767541,0.01360764741096224,-0.008620298356263899,0.0013888351122044336,0.0,1.2090688080779226e-15,9.872796049601593,1.0
266,112.102,0.6735537190082644,-0.04730477278324183,-0.00045820105558796965,-0.7075984868814325,-0.7050293736319735,0.0014243185765063608,0.0019699660764330197,0.00038573959150327124,0.0,1.2085759804680084e-15,9.868771806772909,1.0
267,112.205,0.6910569105691057,-0.047004726261928836,-0.0005111421116734879,-0.7076279364959842,-0.7050189861351026,-0.010305985406551112,0.012127664612395226,-0.0005206977568318589,0.0,1.2080820531409879e-15,9.864738584072581,1.0
268,112.306,0.689161554192229,-0.04531272867151286,-0.0004514308736317288,-0.7076337847380308,-0.705121725316079,-0.019844560012701545,0.020212863601984113,-0.0009905011993982889,0.0,1.2075929491346094e-15,9.860744746774193,1.0
269,112.401,0.6441717791411042,-0.04372124578943844,-0.0003952668378498764,-0.7076392855597579,-0.7052183611793736,-0.02881648662244697,0.02781775374070631,-0.0014323955265647316,0.0,1.2071329008117781e-15,9.856988167137096,1.0
270,112.508,0.6422764227642277,-0.04101062735823976,-0.0003635659369519717,-0.7076574180729581,-0.7053565134041503,-0.03594885043710808,0.03482463895027836,-0.002665028152282331,0.0,1.2066190242305826e-15,9.852792046414343,1.0
271,112.613,0.6579476861167002,-0.037948901801366355,-0.0003462674870981339,-0.7076804353520318,-0.7055049095884789,-0.041646944796777746,0.04101848470202947,-0.0041962296598075,0.0,1.2061166271525148e-15,9.848689662948207,1.0
272,112.702,0.6444444444444445,-0.03523689428488714,-0.000322311779520239,-0.707696610607795,-0.7056334502797992,-0.045988669944187856,0.045598187439498374,-0.0053109078527620295,0.0,1.2056911085993562e-15,9.845215040277779,1.0
273,112.799,0.6343434343434343,-0.031741821306658,-0.0002533053325164872,-0.7076988471920515,-0.7057862726830177,-0.048467650122585915,0.047495360353163436,-0.005680143744463043,0.0,1.2052288311367818e-15,9.841440258333334,1.0
274,112.903,0.6310483870967742,-0.02799452656711371,-0.00017931903882175,-0.7077012451792954,-0.7059501235070872,-0.051125525777775335,0.04952944265235053,-0.006076025525255844,0.0,1.2047331934449494e-15,9.837393069444445,1.0
275,113.003,0.6673346693386774,-0.02427824933510896,-0.00011580944997119692,-0.7076874285428462,-0.7060961834758487,-0.05170753117964928,0.05039280406143292,-0.005538652673453458,0.0,1.2042528291110907e-15,9.833470596987953,1.0
276,113.102,0.666,-0.020541449176685628,-5.6826806872585715e-05,-0.70766552765212,-0.7062349235056493,-0.051277157951550315,0.05069036350910922,-0.0045384590609380705,0.0,1.203775335709182e-15,9.82957156746988,1.0
277,113.196,0.674,-0.01702228375318271,-7.840303889004275e-07,-0.7076444813603678,-0.7063615301732707,-0.05081288054585466,0.05067104890942598,-0.003559355488978451,0.0,1.2033221510622795e-15,9.825871034,1.0
278,113.302,0.648,-0.01332768441617068,6.278308301496022e-05,-0.7076183659516604,-0.7064557414305181,-0.04976229077577591,0.04779008251428605,-0.002176538359373818,0.0,1.2028129405228862e-15,9.8217130144,1.0
279,113.4,0.666,-0.0099119227649712,0.0001215526784260712,-0.7075942215171951,-0.7065428424041996,-0.048790990799665465,0.04512654754519466,-0.000898084786720597,0.0,1.2023421609675982e-15,9.8178688076,1.0
280,113.503,0.68,-0.006741056783334356,0.000176972110831797,-0.7075692617431198,-0.7066047215206478,-0.045343408733606656,0.041339404806495006,-0.0009116062601096479,0.0,1.2018473620472444e-15,9.813828467799999,1.0
281,113.604,0.648,-0.0038526129632793244,0.00022797048016428184,-0.7075450060806038,-0.7066497687875222,-0.04068417623639143,0.037105392366648046,-0.0016399481324478465,0.0,1.2013621708729169e-15,9.8098665812,1.0
282,113.713,0.68,-0.0009282053003461285,0.0002852455649193683,-0.7075253936689102,-0.7066852908133581,-0.03590905860066462,0.03269197333604145,-0.002138923002407004,0.0,1.2009682532858392e-15,9.80665,1.0
283,113.812,0.692,0.0011960210621265032,0.00034343728117350737,-0.7075256881184082,-0.7066814371367339,-0.032270352393389094,0.029113658741116863,-0.0018002982884645822,0.0,1.2009682532858392e-15,9.80665,1.0
284,113.902,0.678,0.0031271359371016225,0.0003963388414045429,-0.7075259557997701,-0.7066779337943483,-0.028962437659502252,0.025860645473003603,-0.001492457639426017,0.0,1.2009682532858392e-15,9.80665,1.0
285,113.996,0.708,0.004705008035204647,0.0004059407910432788,-0.7075072520003969,-0.7066886822093446,-0.024857732448801562,0.022443359138897095,-0.0009313310641217312,0.0,1.2009682532858392e-15,9.80665,1.0
286,114.102,0.704,0.006203741703073874,0.00038759734224343313,-0.7074740299689807,-0.7067100092324967,-0.019813813373030748,0.018577238433508173,-0.0001454625772200767,0.0,1.2009682532858392e-15,9.80665,1.0
287,114.199,0.706,0.00748862100359774,0.0003688771780066842,-0.7074459117700054,-0.7067276206357795,-0.015332190925816455,0.015013221819626998,0.0005149660345885031,0.0,1.2009682532858392e-15,9.80665,1.0
288,114.302,0.682,0.008201591869106059,0.0003344511883099835,-0.7074332265409459,-0.706731994231175,-0.011581528684999398,0.011032053097394152,0.0007746208937891144,0.0,1.2009682532858392e-15,9.80665,1.0
289,114.398,0.664,0.008866108403948634,0.0003023648289810259,-0.7074214034148322,-0.706736070591932,-0.008085765819772526,0.007321449239779794,0.0010166293062478895,0.0,1.2009682532858392e-15,9.80665,1.0
290,114.502,0.732,0.009156938575355704,0.00027137484362899577,-0.7074119410875819,-0.7067421164869462,-0.00439263219050947,0.003616147162578571,0.0011293418887275359,0.0,1.2009682532858392e-15,9.80665,1.0
291,114.61,0.728,0.009202417009407719,0.00024144716852738665,-0.7074041154405868,-0.7067493693996607,-0.0006136235621465062,-4.361510143214599e-05,0.0011570252110788305,0.0,1.2009682532858392e-15,9.80665,1.0
292,114.702,0.748,0.009169867589076284,0.00021413480667784694,-0.7073964700298413,-0.7067574086529558,0.002672583822057078,-0.0029633772258917707,0.0010473683645273444,0.0,1.2009682532858392e-15,9.80665,1.0
293,114.795,0.71,0.008767029660647031,0.00017708957148391673,-0.7073836607413243,-0.7067751914629226,0.006342451833930704,-0.0048883977231098785,0.00024512537803306254,0.0,1.2009682532858392e-15,9.80665,1.0
294,114.902,0.704,0.008303549463421996,0.0001344676342177839,-0.7073689231728155,-0.7067956512550349,0.010564773094903399,-0.007103206252167173,-0.00067788536986892,0.0,1.2009682532858392e-15,9.80665,1.0
295,115.018,0.724,0.007573602557350685,7.429675662251617e-05,-0.7073570254251724,-0.7068153767602189,0.012564420880329202,-0.008758954493509148,-0.0010595964793596497,0.0,1.2009682532858392e-15,9.80665,1.0
296,115.102,0.728,0.006970892431724437,2.6174430742434448e-05,-0.707349739146125,-0.7068288606888692,0.01317242728245834,-0.00971506246095221,-0.0011343201885240187,0.0,1.2009682532858392e-15,9.80665,1.0
297,115.196,0.746,0.006280852463801786,-2.7816227251822164e-05,-0.7073423547956147,-0.7068430938720048,0.013734243884682697,-0.010735989473760069,-0.0011919441772624993,0.0,1.2009682532858392e-15,9.80665,1.0
298,115.307,0.724,0.005311491214310799,-9.295471371922548e-05,-0.7073412662023769,-0.7068514105967916,0.01322153710573914,-0.011455480877310006,-0.0010021372805349598,0.0,1.2009682532858392e-15,9.80665,1.0
299,115.397,0.724,0.004525522633642431,-0.00014576970274684977,-0.7073403835592112,-0.7068581538871592,0.012805828906595713,-0.012038852285593739,-0.0008482397967018197,0.0,1.2009682532858392e-15,9.80665,1.0
300,115.502,0.716,0.003566734549368794,-0.00020488333538324445,-0.7073321002332825,-0.7068716056060955,0.012469587586820154,-0.012371307678520665,-0.0007797867911867785,0.0,1.2009682532858392e-15,9.80665,1.0
301,115.606,0.698,0.002592598538323117,-0.00026196852157527603,-0.707319650413415,-0.7068881977447339,0.01222361009567979,-0.012496834285557255,-0.0007770070037804532,0.0,1.2009682532858392e-15,9.80665,1.0
302,115.703,0.674,0.001699878398964086,-0.00031129584805531267,-0.7073089037152372,-0.7069022880112518,0.011955330667802078,-0.012536188999406145,-0.0007606034289555734,0.0,1.2009682532858392e-15,9.80665,1.0
303,115.803,0.712,0.0008564387151589361,-0.000343152582136797,-0.7073020218701526,-0.706910094381545,0.011490236708070678,-0.012199693619166018,-0.0006766900358966534,0.0,1.2009682532858392e-15,9.80665,1.0
304,115.902,0.728,2.14334281917587e-05,-0.0003746907488774695,-0.7072952088435188,-0.7069178226881352,0.011029793687936548,-0.011866563192728262,-0.0005936157767683146,0.0,1.2009682532858392e-15,9.80665,1.0
305,116.001,0.704,-0.0007227071313279503,-0.0003803592013804368,-0.7072955504546956,-0.7069170753675006,0.010687205523252467,-0.011136875413358144,1.9980131648547595e-05,0.0,1.2009682532858392e-15,9.80665,1.0
306,116.104,0.692,-0.0014452145849115114,-0.00037153756613306585,-0.7072999766494846,-0.7069114754663375,0.010397831402719016,-0.010152075681835397,0.0009602192058228114,0.0,1.2009682532858392e-15,9.80665,1.0
307,116.206,0.694,-0.0021294398385996735,-0.0003623516761298647,-0.7073023550717563,-0.7069077635045192,0.010116263277828679,-0.009157189644873085,0.001615572368726106,0.0,1.2009682532858392e-15,9.80665,1.0
308,116.302,0.704,-0.002644861360477178,-0.0003518563819548038,-0.7072963509426516,-0.7069118085397814,0.009871801026165462,-0.008140046633779907,0.0010986112710088011,0.0,1.2009682532858392e-15,9.80665,1.0
309,116.398,0.712,-0.003160282882354607,-0.0003413610877797444,-0.7072903468135471,-0.7069158535750437,0.009627338774502281,-0.0071229036226868785,0.0005816501732915729,0.0,1.2009682532858392e-15,9.80665,1.0
310,116.506,0.688,-0.00362744606927891,-0.0003333022744671753,-0.7072859708571937,-0.7069180374143574,0.009006765009835343,-0.006521234653890126,-0.00039837604947391014,0.0,1.2009682532858392e-15,9.80665,1.0
311,116.61,0.7214428857715431,-0.004015973781464443,-0.000327582123661221,-0.7072830516542071,-0.7069188521469488,0.00822109629400073,-0.006237187109887595,-0.0015589720029384091,0.0,1.2009682532858392e-15,9.80665,1.0
312,116.714,0.6993987975951904,-0.004349225296657263,-0.0003156587870937594,-0.7072816427039198,-0.7069184145454471,0.007096121708862463,-0.005624183796346173,-0.0024756348850205555,0.0,1.2009682532858392e-15,9.80665,1.0
313,116.803,0.764,-0.004499508634626389,-0.0002903161197877705,-0.7072841227802047,-0.7069149837042978,0.005305317915976054,-0.0042967689633369496,-0.002664761511608957,0.0,1.2009682532858392e-15,9.80665,1.0
314,116.902,0.774,-0.004666677740906662,-0.00026212596177324214,-0.7072868815167462,-0.7069111673753788,0.00331330021377646,-0.0028202063962816685,-0.002875138320960111,0.0,1.2009682532858392e-15,9.80665,1.0
315,117.005,0.774,-0.004706315556180773,-0.00024371414969086844,-0.7072894825743612,-0.7069083234945797,0.001418974848060267,-0.0014613795956320542,-0.0027732392193293358,0.0,1.2009682532858392e-15,9.80665,1.0
316,117.102,0.796,-0.004678553052356623,-0.00023166675739025452,-0.707291801654236,-0.7069061913866421,-0.00027863453815590205,-0.0002676951257141692,-0.002521788485415549,0.0,1.2009682532858392e-15,9.80665,1.0
317,117.194,0.78,-0.004645885831882691,-0.0002205217063942044,-0.7072943091206703,-0.706903900902873,-0.001825834276614693,0.0008099634407655629,-0.0022840957292745295,0.0,1.2009682532858392e-15,9.80665,1.0
318,117.311,0.79,-0.004519738412327313,-0.00021010493806463063,-0.7073016097901969,-0.7068974056148768,-0.0029534950807869175,0.0014527676941500677,-0.0019924497543518647,0.0,1.2009682532858392e-15,9.80665,1.0
319,117.404,0.828,-0.0044194673865269,-0.0002018249427257399,-0.7073074128864872,-0.706892242693649,-0.003849840848205728,0.001963714664788955,-0.0017606285947979867,0.0,1.2009682532858392e-15,9.80665,1.0
320,117.502,0.8,-0.00425612639178515,-0.00018087923835815754,-0.7073058503117787,-0.7068947865937519,-0.004208176508545874,0.002178043886087834,-0.0006657540192827938,0.0,1.2009682532858392e-15,9.80665,1.0
321,117.601,0.794,-0.004061536632099895,-0.0001534522151422464,-0.7073003341263492,-0.7069014514327755,-0.004269522216171027,0.0022283441983163366,0.0008765372112393606,0.0,1.2009682532858392e-15,9.80665,1.0
322,117.702,0.768,-0.003863585486365856,-0.00012646385347591982,-0.707295423909279,-0.7069075093502337,-0.004295548386871814,0.0022529678791761397,0.0021245704288594385,0.0,1.2009682532858392e-15,9.80665,1.0
323,117.793,0.786,-0.003688176454297677,-0.00010727579518350974,-0.7072947057419978,-0.7069091367900868,-0.004130146544426664,0.002137267204001535,0.0015680452352389155,0.0,1.2009682532858392e-15,9.80665,1.0
324,117.902,0.772,-0.003478071130172085,-8.429229678930743e-05,-0.70729384551965,-0.7069110861411197,-0.003932027854025358,0.001998680680990215,0.0009014381351880518,0.0,1.2009682532858392e-15,9.80665,1.0
325,117.994,0.786,-0.0032603337571497455,-7.154303966333975e-05,-0.7072957748687886,-0.7069101601909354,-0.004123794812975199,0.0023418672138913973,0.000191879713730415,0.0,1.2009682532858392e-15,9.80665,1.0
326,118.102,0.768,-0.002975607179003233,-6.136975285232877e-05,-0.7072999538384545,-0.7069072197704503,-0.004607678490823975,0.003076431662997383,-0.0007469818506035876,0.0,1.2009682532858392e-15,9.80665,1.0
327,118.189,0.79,-0.0027462441021630242,-5.317460514346016e-05,-0.7073033202306853,-0.706904851098393,-0.0049974736757576466,0.003668164135888219,-0.0015032869996503,0.0,1.2009682532858392e-15,9.80665,1.0
328,118.302,0.766,-0.0024756439094888315,-4.45240755433785e-05,-0.7073014230473216,-0.7069076874502125,-0.00405360841109678,0.0032726969821528394,-0.002056092914332873,0.0,1.2009682532858392e-15,9.80665,1.0
329,118.394,0.826,-0.002255332248196598,-3.748116648844571e-05,-0.7072998784378572,-0.706909996692402,-0.00328515173544379,0.0029507237242444324,-0.002506164986463757,0.0,1.2009682532858392e-15,9.80665,1.0
330,118.502,0.804,-0.002041362196287416,-3.142239215779359e-05,-0.7072928055479796,-0.7069177345080454,-0.0020950510716786566,0.0023898068387689696,-0.0030483294228490923,0.0,1.2009682532858392e-15,9.80665,1.0
331,118.609,0.798,-0.0018586419224766097,-2.6867517584348772e-05,-0.7072823509025263,-0.7069286954167211,-0.0007272113109051798,0.001714176928905384,-0.003594530945909876,0.0,1.2009682532858392e-15,9.80665,1.0
332,118.702,0.814,-0.0017055638404892077,-2.2733039273813155e-05,-0.7072753460497723,-0.706936114830417,0.0002927899977330662,0.001162466416359828,-0.0039490363448409236,0.0,1.2009682532858392e-15,9.80665,1.0
333,118.819,0.794,-0.0015573807020772116,-1.6172357776941005e-05,-0.7072826513911187,-0.7069291339065165,0.00026864637588019794,0.0007433665240273064,-0.0034642102006059616,0.0,1.2009682532858392e-15,9.80665,1.0
334,118.902,0.84,-0.0014522593303832373,-1.151819910822e-05,-0.7072878338127575,-0.7069241816271682,0.00025151884926662567,0.0004460563439965603,-0.0031202737051230596,0.0,1.2009682532858392e-15,9.80665,1.0
335,118.998,0.856,-0.0013535612854574447,-1.655308171147061e-05,-0.7072882587278253,-0.7069239545764404,-9.207974886522971e-05,0.0005529960803687658,-0.0031564454548060963,0.0,1.2009682532858392e-15,9.80665,1.0
336,119.102,0.842,-0.0012615156814058059,-2.8779241688769587e-05,-0.7072850990652246,-0.7069272841812593,-0.0006747740539722227,0.0009618782326579148,-0.0034777170978486584,0.0,1.2009682532858392e-15,9.80665,1.0
337,119.191,0.874,-0.0011837163129357058,-3.907933351402901e-05,-0.707282528475688,-0.7069299979238373,-0.0011672510337084536,0.001283524748403578,-0.0037172726672142736,0.0,1.2009682532858392e-15,9.80665,1.0
338,119.308,0.906,-0.0011180116732671232,-4.648925543125831e-05,-0.707284174602625,-0.7069284541289754,-0.0015819619037211103,0.0006412894511595115,-0.002698929384350737,0.0,1.2009682532858392e-15,9.80665,1.0
339,119.4,0.88,-0.0010663464865191805,-5.231586069950669e-05,-0.7072854689930371,-0.7069272402048106,-0.001908059339970362,0.00013628391828386134,-0.0018981808200478267,0.0,1.2009682532858392e-15,9.80665,1.0
340,119.503,0.898,-0.001043414132649087,-5.824126803051253e-05,-0.7072852381290807,-0.7069275067316226,-0.0008951987884939119,-0.00032092754030599335,-0.0014486828958615702,0.0,1.2009682532858392e-15,9.80665,1.0
341,119.598,0.854,-0.0010410868000964848,-6.338407991255544e-05,-0.7072841193163104,-0.7069286290912502,0.0007819940149783487,-0.000684298472478973,-0.0012751194275915684,0.0,1.2009682532858392e-15,9.80665,1.0
342,119.711,0.892,-0.0010469631075173277,-6.526350770231514e-05,-0.7072843297271278,-0.706928409218026,0.0022595901705605693,-0.0011250306764388285,-0.0007481754652136324,0.0,1.2009682532858392e-15,9.80665,1.0
343,119.815,0.882,-0.001083503954203961,-5.1731254771833225e-05,-0.7072900738673599,-0.7069226070973996,0.0017562150568997095,-0.0015613154590403237,0.0008910246653526307,0.0,1.2009682532858392e-15,9.80665,1.0
344,119.909,0.946,-0.00111653125793996,-3.9500180007742623e-05,-0.7072952656864157,-0.7069173628729872,0.0013012413964754276,-0.001955649781776329,0.0023726093987492024,0.0,1.2009682532858392e-15,9.80665,1.0
345,120.008,0.914,-0.001169191804515321,-3.442002288939567e-05,-0.7072918639056158,-0.7069206789315892,0.0016470740496691426,-0.002122469002290837,0.001338014213909142,0.0,1.2009682532858392e-15,9.80665,1.0
346,120.114,0.884,-0.001234301623977225,-3.278870657956732e-05,-0.707283892118803,-0.7069285440331738,0.002420059031611633,-0.0021797913002721504,-0.0010363903317240717,0.0,1.2009682532858392e-15,9.80665,1.0
347,120.198,0.87,-0.0012854714900492825,-3.1400769587197637e-05,-0.7072783720708513,-0.7069339786657115,0.0029203259758651613,-0.0021511869179085524,-0.0026405241200700884,0.0,1.2009682532858392e-15,9.80665,1.0
348,120.309,0.856,-0.0013489173269774603,-2.8635831395409074e-05,-0.707278873365831,-0.7069333559695065,0.0024833846781403017,-0.0013894845419563692,-0.0020470139463432393,0.0,1.2009682532858392e-15,9.80665,1.0
349,120.403,0.878,-0.0014026462339256497,-2.6294352205966387e-05,-0.7072792978859038,-0.7069328286411887,0.0021133623179048168,-0.0007444392866454788,-0.0015444017271511073,0.0,1.2009682532858392e-15,9.80665,1.0
350,120.507,0.912,-0.0014464374778894967,-3.796631585262769e-05,-0.707276427688936,-0.7069356118189392,0.001946550395072573,-0.0008225618959942786,-0.0020346174988732906,0.0,1.2009682532858392e-15,9.80665,1.0
351,120.595,0.888,-0.0014767729907893623,-5.396419423509043e-05,-0.707272565556475,-0.7069394117908125,0.0019095168834871257,-0.001228508490334421,-0.002898495158262248,0.0,1.2009682532858392e-15,9.80665,1.0
352,120.715,0.88,-0.00152864017285812,-7.201186258467117e-05,-0.7072685572998616,-0.7069433093757469,0.001691329027862638,-0.0016334608017680055,-0.0032652012814941424,0.0,1.2009682532858392e-15,9.80665,1.0
353,120.805,0.858,-0.00159601326851006,-7.53315663491122e-05,-0.7072689630027648,-0.7069427504206033,0.0010729967251823318,-0.001534209979406312,-0.0013403356772841708,0.0,1.2009682532858392e-15,9.80665,1.0
354,120.902,0.864,-0.0016686264938238107,-7.890946929523161e-05,-0.7072694002603382,-0.7069421479911706,0.00040657191007139985,-0.0014272396486387194,0.0007342416961419298,0.0,1.2009682532858392e-15,9.80665,1.0
355,120.998,0.868,-0.0016889702119549778,-8.001660763710125e-05,-0.7072761074997226,-0.7069353919050166,-0.0004702075314708293,-0.0008826213236897991,0.0009653329011052644,0.0,1.2009682532858392e-15,9.80665,1.0
356,121.104,0.92,-0.001677300459726003,-7.962662804753265e-05,-0.70728767025925,-0.7069238511477793,-0.0015822297176345849,9.400469250950283e-06,1.3355669565527422e-05,0.0,1.2009682532858392e-15,9.80665,1.0
357,121.213,0.888,-0.0016728555749466268,-7.576794949711396e-05,-0.7072951018182368,-0.7069164267290718,-0.002362740451991147,0.0006241707005612257,-0.0006424440602247465,0.0,1.2009682532858392e-15,9.80665,1.0
358,121.31,0.9,-0.001691490607346691,-6.199535358782512e-05,-0.7072883840540383,-0.7069231045467393,-0.001971968602100822,0.0002667646437498942,-0.00025988645234425263,0.0,1.2009682532858392e-15,9.80665,1.0
359,121.406,0.894,-0.0017099335260106715,-4.836474320337497e-05,-0.7072817355451408,-0.7069297135209256,-0.0015852253279825812,-8.69568145375918e-05,0.00011872726267147529,0.0,1.2009682532858392e-15,9.80665,1.0
360,121.504,0.922,-0.0017258110374416577,-6.192113998540847e-05,-0.7072769000152069,-0.7069345112594287,-0.000967650872427089,-9.140889302883308e-05,0.00027928240977379985,0.0,1.2009682532858392e-15,9.80665,1.0
361,121.592,0.858,-0.0017386612984973775,-8.719900884687564e-05,-0.7072734888468705,-0.7069378897171287,-0.0003068219133823941,7.472448003459004e-05,0.0003156687456126108,0.0,1.2009682532858392e-15,9.80665,1.0
362,121.707,0.904,-0.0017570936271184565,-0.00011745351953242525,-0.707268232712944,-0.7069430991135369,0.00044913165817607166,0.00015211061943017925,0.0005095586525349082,0.0,1.2009682532858392e-15,9.80665,1.0
363,121.804,0.9,-0.0017784862676793506,-0.0001330634617909718,-0.7072609526459851,-0.7069503255292545,0.0007029961454077167,-0.00028080315770047875,0.0011948908373941116,0.0,1.2009682532858392e-15,9.80665,1.0
364,121.902,0.886,-0.0018000994509264371,-0.00014883433128929567,-0.7072535975267894,-0.7069576264441032,0.0009594777923015188,-0.0007181799634613073,0.0018872883025095283,0.0,1.2009682532858392e-15,9.80665,1.0
365,122.003,0.882,-0.001793268718261614,-0.00016139303185999112,-0.7072535782500404,-0.7069576602375791,0.00023892693687221206,-0.000291846266481959,0.0014486693665384464,0.0,1.2009682532858392e-15,9.80665,1.0
366,122.102,0.924,-0.001770079805865542,-0.0001716092018160712,-0.7072578439991786,-0.7069534486006552,-0.0010254666651600504,0.0006230773252901701,0.000365803800290331,0.0,1.2009682532858392e-15,9.80665,1.0
367,122.209,0.886,-0.00174540954589285,-0.00017755889927227763,-0.7072617203287607,-0.7069496309202693,-0.0020818936359137015,0.0012848293920978177,-0.0005801230692304643,0.0,1.2009682532858392e-15,9.80665,1.0
368,122.302,0.882,-0.001725451165401958,-0.0001634780070322146,-0.707262313859157,-0.7069490889864504,-0.001827507012523673,0.0006232660072854673,-0.0005537005395162813,0.0,1.2009682532858392e-15,9.80665,1.0
369,122.42,0.926,-0.0017001276288651293,-0.00014561192870611453,-0.7072630669407354,-0.7069484013714973,-0.0015047368882223724,-0.000216136997100028,-0.000520175179233772,0.0,1.2009682532858392e-15,9.80665,1.0
370,122.502,0.876,-0.0017095879236649681,-0.00014451696380168402,-0.707265681754623,-0.7069457625909488,-0.0008220160952768981,-0.000441970502957705,0.0007721861810423922,0.0,1.2009682532858392e-15,9.80665,1.0
371,122.613,0.8977955911823647,-0.0017334402615509568,-0.00014765628433860873,-0.7072700751610329,-0.7069413083849105,0.0002893041567877594,-0.0006017319131642672,0.003039692787453667,0.0,1.2009682532858392e-15,9.80665,1.0
372,122.703,0.8677354709418837,-0.0017511704749684756,-0.00015375760707898552,-0.7072716995976478,-0.7069396384050093,0.0011497092731297728,-0.0007737043760717358,0.004175560662522614,0.0,1.2009682532858392e-15,9.80665,1.0
373,122.796,0.904,-0.001760463054718083,-0.0001800093684006719,-0.7072625081321845,-0.7069488038656004,0.0018106812643819518,-0.0011894560409710414,0.0014077533138911872,0.0,1.2009682532858392e-15,9.80665,1.0
374,122.921,0.932,-0.001772953081263254,-0.00021529399383304475,-0.707250154011938,-0.7069611230330617,0.002699084478430546,-0.0017482620421797644,-0.0023124178536240315,0.0,1.2009682532858392e-15,9.80665,1.0
375,123.0,0.934,-0.0017882473962500846,-0.00020387661654627646,-0.7072485511192785,-0.7069626907675864,0.0024661207953467546,-0.0017216645339503765,-0.002734701746143387,0.0,1.2009682532858392e-15,9.80665,1.0
376,123.103,0.894,-0.0018110353039537807,-0.00017601872433399112,-0.7072488484695663,-0.7069623425506073,0.0018567428309470327,-0.0015408816821873164,-0.002543188011273739,0.0,1.2009682532858392e-15,9.80665,1.0
377,123.196,0.914,-0.00183128134397725,-0.0001508434297373029,-0.7072488638001574,-0.7069622819681484,0.0013036474860272985,-0.0013733934131450836,-0.002431907694786822,0.0,1.2009682532858392e-15,9.80665,1.0
378,123.312,0.896,-0.0018514859472342803,-0.00011910405784902863,-0.7072450036107423,-0.7069660960782252,0.0005696272249333266,-0.0010992462434805824,-0.00323768272623423,0.0,1.2009682532858392e-15,9.80665,1.0
379,123.418,0.894,-0.0018699487743484649,-9.010083870974104e-05,-0.7072414761962766,-0.7069695813857093,-0.00010111542744570528,-0.0008487324505112754,-0.003973994392901753,0.0,1.2009682532858392e-15,9.80665,1.0
380,123.52,0.89,-0.0019024913486945466,-7.439183150818181e-05,-0.7072341539193046,-0.70697682026619,0.00026255819480868077,-0.001031036111991862,-0.00399514589644968,0.0,1.2009682532858392e-15,9.80665,1.0
381,123.603,0.898,-0.0019320893991763557,-6.418274294545512e-05,-0.7072273669277618,-0.7069835303499921,0.0007713754521682949,-0.0012686966238543438,-0.0038673447892069793,0.0,1.2009682532858392e-15,9.80665,1.0
382,123.702,0.914,-0.0019635565132723205,-5.215447624966966e-05,-0.7072204345580168,-0.7069903808530422,0.0012394704914417826,-0.001467439570033764,-0.0037460265888932735,0.0,1.2009682532858392e-15,9.80665,1.0
383,123.796,0.936,-0.0019693357385566295,-4.1668595972160926e-05,-0.7072211571630962,-0.7069896424909854,0.000812036559946664,-0.0011239223209101722,-0.003826304209006745,0.0,1.2009682532858392e-15,9.80665,1.0
384,123.902,0.902,-0.0019758527372814878,-2.984409268050379e-05,-0.7072219720156325,-0.7069888098699427,0.00033003659464372545,-0.0007365518059410695,-0.0039168300359432,0.0,1.2009682532858392e-15,9.80665,1.0
385,123.998,0.892,-0.0019607497046917216,-2.856337290864866e-05,-0.7072241744038829,-0.7069866481976004,-8.60744925500437e-05,-0.0005599932429982846,-0.003439064554675565,0.0,1.2009682532858392e-15,9.80665,1.0
386,124.114,0.874,-0.00192587107438871,-3.447987912121985e-05,-0.7072279949464896,-0.7069829218264935,-0.0005727117861542954,-0.00048461346746792017,-0.0024186282822614537,0.0,1.2009682532858392e-15,9.80665,1.0
387,124.191,0.918,-0.0019025875195272013,-3.818002359493287e-05,-0.7072302563300695,-0.7069807233262373,-0.0008936785152182285,-0.00043221829971296853,-0.0017664500419050818,0.0,1.2009682532858392e-15,9.80665,1.0
388,124.306,0.914,-0.0018604563320744065,-3.09820115083842e-05,-0.7072182506273742,-0.7069928438321862,-0.0012576850168407104,-0.00022186927427536956,-0.002202679021284001,0.0,1.2009682532858392e-15,9.80665,1.0
389,124.393,0.878,-0.001828583172870985,-2.5536558886386065e-05,-0.7072091680522915,-0.7070020132584258,-0.0015330638485029583,-6.273566372691199e-05,-0.002532695727422863,0.0,1.2009682532858392e-15,9.80665,1.0
390,124.504,0.862,-0.0018009261396649088,-1.7060922950723835e-05,-0.7072042218472813,-0.7070070328885036,-0.001590197612531467,-0.00034531054901897214,-0.0018889863928778458,0.0,1.2009682532858392e-15,9.80665,1.0
391,124.594,0.87,-0.0017859659821226604,-9.312018349281868e-06,-0.7072040225679906,-0.7070072702499322,-0.0014677023002877816,-0.0008530690812040185,-0.00075609280262141,0.0,1.2009682532858392e-15,9.80665,1.0
392,124.721,0.872,-0.0017715654088440956,-1.6290938898696322e-06,-0.7072047259602627,-0.7070066032976919,-0.0012083134269341392,-0.0012646764479577125,0.0003173481114208291,0.0,1.2009682532858392e-15,9.80665,1.0
393,124.792,0.892,-0.0017746510336261942,-2.7306474458024017e-06,-0.7072067533267328,-0.707004567593647,-0.000919680086779373,-0.0009887527583632282,4.579261643808765e-05,0.0,1.2009682532858392e-15,9.80665,1.0
394,124.902,0.908,-0.0017794315790632485,-4.437279715557438e-06,-0.7072098943170383,-0.7070014136859718,-0.0004725016724550768,-0.0005612653519492283,-0.0003749271645210992,0.0,1.2009682532858392e-15,9.80665,1.0
395,124.999,0.912,-0.0017884647911533289,-1.5615878660146512e-05,-0.7072122442386499,-0.7069990397479035,-0.00021972461820179143,-0.00010836046709459575,-0.0004537252860470289,0.0,1.2009682532858392e-15,9.80665,1.0
396,125.104,0.934,-0.001801458909428704,-3.417384099984453e-05,-0.7072145077003587,-0.706996741861029,-4.059024896301477e-05,0.0004325884489891877,-0.0003439710367437554,0.0,1.2009682532858392e-15,9.80665,1.0
397,125.195,0.89,-0.0018111740654423543,-5.0165332587016736e-05,-0.7072160507203696,-0.7069951730054539,7.461056578907257e-05,0.0008672384859528469,-0.0002575446246191829,0.0,1.2009682532858392e-15,9.80665,1.0
398,125.302,0.91,-0.001791322449143989,-6.710635836224947e-05,-0.7072093982540452,-0.7070018759818932,-0.0005998909808695882,0.00068720275163649,-0.000331750075798488,0.0,1.2009682532858392e-15,9.80665,1.0
399,125.401,0.886,-0.0017729550658398985,-8.278076538792846e-05,-0.7072032431683806,-0.7070080778012157,-0.0012239625053480174,0.0005206276329699929,-0.0004004074558615675,0.0,1.2009682532858392e-15,9.80665,1.0
400,125.505,0.928,-0.0017719134660770738,-8.696716464491659e-05,-0.7072014511046681,-0.7070098727679732,-0.0014552839695887864,-7.139975752352138e-05,-0.00034969497821757997,0.0,1.2009682532858392e-15,9.80665,1.0
401,125.619,0.908,-0.0017827768524402072,-8.34798745715969e-05,-0.7072025607052597,-0.707008735970167,-0.0014298095403098138,-0.0009946364555062535,-0.00021331708630606449,0.0,1.2009682532858392e-15,9.80665,1.0
402,125.706,0.908,-0.0017890252947622323,-8.00341317480389e-05,-0.7072025311495368,-0.7070087502089832,-0.0013349546373440245,-0.001562292248582893,-0.00025517844555743123,0.0,1.2009682532858392e-15,9.80665,1.0
403,125.793,0.934,-0.0017854719607102887,-7.282331753472097e-05,-0.7071982950841772,-0.7070129970639754,-0.0008781130568696307,-0.0014727340495011834,-0.0009975480806385943,0.0,1.2009682532858392e-15,9.80665,1.0
404,125.906,0.886,-0.0017808567107347759,-6.345754734960729e-05,-0.7071927930682503,-0.7070185130940226,-0.0002847441075178568,-0.0013564113311536805,-0.001961775307812938,0.0,1.2009682532858392e-15,9.80665,1.0
405,125.994,0.874,-0.001763103800819072,-5.660077428413706e-05,-0.7071970501502473,-0.707014299174242,-0.0002908084401860903,-0.0011272969068959284,-0.0023555774632841387,0.0,1.2009682532858392e-15,9.80665,1.0
406,126.102,0.87,-0.0017303752995569991,-4.852326684866191e-05,-0.7072088752618785,-0.7070025519537672,-0.0006600086856633634,-0.000739067570306339,-0.002562938841059816,0.0,1.2009682532858392e-15,9.80665,1.0
407,126.192,0.882,-0.0017035483864929523,-4.138797166999736e-05,-0.7072189884398996,-0.7069925024370541,-0.0009640253186225816,-0.00042356192460283476,-0.002685365652665604,0.0,1.2009682532858392e-15,9.80665,1.0
408,126.309,0.876,-0.0016942325324048378,-9.001058142318241e-06,-0.7072469456997129,-0.706964556551983,-0.001150453312322497,-0.0004720800283830612,3.6891542375082614e-05,0.0,1.2009682532858392e-15,9.80665,1.0
409,126.389,0.86,-0.0016878627176437342,1.3143839996264467e-05,-0.7072660617747989,-0.7069454482544983,-0.001277925444766876,-0.0005052548001985987,0.0018982639834284332,0.0,1.2009682532858392e-15,9.80665,1.0
410,126.503,0.88,-0.0017191822987302416,2.573136015729807e-05,-0.7072736979587583,-0.7069377314040638,-0.00010159368347371824,-0.0007977483088616382,0.00242561680823562,0.0,1.2009682532858392e-15,9.80665,1.0
411,126.596,0.888,-0.0017714104167253868,2.347300661102546e-05,-0.7072669808287037,-0.7069443221357576,0.0017548564411700952,-0.0011983046107925728,0.0014524056036024668,0.0,1.2009682532858392e-15,9.80665,1.0
412,126.702,0.88,-0.0018267562957792727,1.8553139851309593e-05,-0.7072607994377262,-0.7069503687767354,0.0035481629762798518,-0.0015493916403502206,0.0005855132881552028,0.0,1.2009682532858392e-15,9.80665,1.0
413,126.785,0.88,-0.0018444364604915167,3.1230011096149265e-07,-0.7072650045378444,-0.7069461153117113,0.002973350496031352,-0.001177438695449387,0.0013932660082355032,0.0,1.2009682532858392e-15,9.80665,1.0
414,126.907,0.932,-0.0018704241724781892,-2.6499536615815725e-05,-0.7072711855283794,-0.7069398632305912,0.002128445404581734,-0.0006307126800529711,0.0025805651871487383,0.0,1.2009682532858392e-15,9.80665,1.0
415,127.007,0.856,-0.0018593693930339867,-5.127795008954876e-05,-0.7072672195843879,-0.7069438579619036,0.002013791207224143,-0.00011478698323476766,0.0013578380625693313,0.0,1.2009682532858392e-15,9.80665,1.0
416,127.102,0.952,-0.0018337275566213977,-7.612829313115527e-05,-0.707259225616173,-0.7069519200135579,0.0021752709373831854,0.0004070618995465675,-0.0008312481008471472,0.0,1.2009682532858392e-15,9.80665,1.0
417,127.193,0.91,-0.0018096187635037637,-9.989331449906874e-05,-0.7072513717902106,-0.7069598378356635,0.00232447250559926,0.0008826580336317414,-0.0028782488368451604,0.0,1.2009682532858392e-15,9.80665,1.0
418,127.314,0.898,-0.0017952457713424723,-0.00012997214929609966,-0.7072332666818357,-0.7069779804289597,0.002309159733355046,0.0005680287615396201,-0.003653280388563841,0.0,1.2009682532858392e-15,9.80665,1.0
419,127.392,0.904,-0.0017859805367261019,-0.00014936181139666658,-0.7072215956202387,-0.7069896756543903,0.0022992886900901795,0.0003652098919265014,-0.004152887504547823,0.0,1.2009682532858392e-15,9.80665,1.0
420,127.515,0.938,-0.0017759152707919382,-0.0001618124145128267,-0.7072230194370073,-0.7069882745285113,0.0017607073284920177,-0.00016406300870929798,-0.003784730654635168,0.0,1.2009682532858392e-15,9.80665,1.0
421,127.593,0.962,-0.001771377144374885,-0.00016235165800927042,-0.7072319696858687,-0.7069793324133217,0.0012069001801194436,-0.0005847027488181334,-0.003082098976496259,0.0,1.2009682532858392e-15,9.80665,1.0
422,127.702,0.934,-0.001766310389587623,-0.00016252420129404186,-0.7072445563448677,-0.7069667539330596,0.0004614270980345612,-0.0011232828034223792,-0.0021272093031238937,0.0,1.2009682532858392e-15,9.80665,1.0
423,127.789,0.894,-0.0017751141056778288,-0.00015680712777994937,-0.7072554012666983,-0.7069558834188179,0.0001529704918189443,-0.0010570053261919673,-0.0016370542266836022,0.0,1.2009682532858392e-15,9.80665,1.0
424,127.902,0.904,-0.0017865488173811992,-0.00014938150356049622,-0.7072694871996508,-0.7069417642451477,-0.00024766854843810454,-0.0009709207868007465,-0.0010004160239508362,0.0,1.2009682532858392e-15,9.80665,1.0
425,127.996,0.89,-0.0017885816488262857,-0.0001482144469686668,-0.7072813710480295,-0.70692986979541,-0.00010031616304963226,-0.0007811243275094618,-0.0001886951312588005,0.0,1.2009682532858392e-15,9.80665,1.0
426,128.104,0.902,-0.0017848239125851323,-0.00015095523064777495,-0.7072951603539052,-0.7069160822000602,0.0004605495085263509,-0.0004667738996292373,0.0009737701405843653,0.0,1.2009682532858392e-15,9.80665,1.0
427,128.189,0.86,-0.0017818664349879296,-0.0001531123289137388,-0.7073060130483444,-0.7069052308518683,0.0009019715648591194,-0.00021936847027916203,0.0018886733637938887,0.0,1.2009682532858392e-15,9.80665,1.0
428,128.302,0.914,-0.0017978165508223227,-0.000146006303249443,-0.7072973154368491,-0.7069138940074903,0.0018526405491216223,-0.0005710156654393386,0.0004865318537686965,0.0,1.2009682532858392e-15,9.80665,1.0
429,128.391,0.882,-0.0018105188451283459,-0.00014033938456288093,-0.7072903024829871,-0.706920879568653,0.0026039561271607235,-0.0008527625262165537,-0.0006362230737740528,0.0,1.2009682532858392e-15,9.80665,1.0
430,128.502,0.894,-0.001817698464747949,-0.0001383532359709932,-0.7072920948718321,-0.7069190683199175,0.0026612628549336965,-0.0007115093914325935,-0.0002083294028415051,0.0,1.2009682532858392e-15,9.80665,1.0
431,128.602,0.89,-0.0018177697749495211,-0.00014031637300636156,-0.7073014920039066,-0.7069096654981158,0.0020632617473602213,-0.0002204636733513256,0.0015271703777835013,0.0,1.2009682532858392e-15,9.80665,1.0
432,128.702,0.886,-0.0018176789544590783,-0.00014371612100798893,-0.7073080571955451,-0.7069030961982771,0.0015702358605339968,0.00014076516195203398,0.0028711850298569395,0.0,1.2009682532858392e-15,9.80665,1.0
433,128.815,0.924,-0.0018160940106052457,-0.0001606923785113488,-0.7072895842030397,-0.7069215790079866,0.0019728764221072026,-0.0006379266087896793,0.0008106798250229036,0.0,1.2009682532858392e-15,9.80665,1.0
434,128.906,0.884,-0.0018148176398910972,-0.0001743635239344098,-0.7072747077223495,-0.7069364633945667,0.002297126785852027,-0.0012650146719534185,-0.0008486650744453693,0.0,1.2009682532858392e-15,9.80665,1.0
435,129.022,0.854,-0.0018250706693097784,-0.0001604436092055275,-0.7072685880426405,-0.7069425625383278,0.0015310435460796452,-0.0009381120657619698,-0.0009632553421499736,0.0,1.2009682532858392e-15,9.80665,1.0
436,129.104,0.91,-0.0018359472517913737,-0.00014102879560206043,-0.7072681851732322,-0.706942941539991,0.0006292511598183933,-0.00036300828219367376,-0.0004331715972221643,0.0,1.2009682532858392e-15,9.80665,1.0
437,129.193,0.916,-0.0018471887684965624,-0.00012018565398456873,-0.7072676883680677,-0.7069434138537508,-0.0003383892994606861,0.00025477965536993286,0.00012304603005753375,0.0,1.2009682532858392e-15,9.80665,1.0
438,129.302,0.882,-0.001800219221515695,-0.00011934287724374326,-0.7072606624998284,-0.7069505621029178,-0.0003234851045999696,0.00032054909388533814,-0.0012561018811536946,0.0,1.2009682532858392e-15,9.80665,1.0
439,129.399,0.884,-0.0017584206338354623,-0.00011859288326337544,-0.7072544101216706,-0.7069569233888737,-0.0003102217385312551,0.00037907786027062266,-0.0024834169948007106,0.0,1.2009682532858392e-15,9.80665,1.0
440,129.51,0.854,-0.0017448880088252387,-0.00010724400853589605,-0.7072531387380602,-0.7069582315803974,-5.887473393659503e-05,9.840490812305182e-05,-0.0028956765888752327,0.0,1.2009682532858392e-15,9.80665,1.0
441,129.6,0.896,-0.0017515012165243394,-9.266347492963497e-05,-0.7072551244149176,-0.706956230721597,0.0002660085473590465,-0.00030741395151310716,-0.0027212249161123487,0.0,1.2009682532858392e-15,9.80665,1.0
442,129.724,0.868,-0.0017632582333980138,-7.497555903988991e-05,-0.7072559240681894,-0.706955403779686,0.0005813691626502786,-0.0007638416035281755,-0.002355346857732278,0.0,1.2009682532858392e-15,9.80665,1.0
443,129.809,0.92,-0.0017772580521387726,-6.824193923682426e-05,-0.7072521244539768,-0.7069591703809102,0.0005005554502041888,-0.0008460961040467578,-0.0018226764021584756,0.0,1.2009682532858392e-15,9.80665,1.0
444,129.902,0.888,-0.0017925755008786587,-6.087456698170692e-05,-0.7072479672290148,-0.706963291485779,0.00041213574129260304,-0.000936092204614129,-0.001239872256648437,0.0,1.2009682532858392e-15,9.80665,1.0
445,130.007,0.886,-0.0018193703132562597,-5.685171384600558e-05,-0.7072480206409599,-0.7069631693244953,1.8618082680605828e-07,-0.000701867946073881,-0.0006372711839094572,0.0,1.2009682532858392e-15,9.80665,1.0
446,130.102,0.954,-0.0018489031275067984,-5.560342718190996e-05,-0.7072507120138947,-0.706960400177524,-0.0005463116641444355,-0.0003029669524660446,-0.000122908119441397,0.0,1.2009682532858392e-15,9.80665,1.0
447,130.193,0.884,-0.001876276362333909,-5.447855332639781e-05,-0.7072532070044203,-0.7069578331059738,-0.0010561508471146125,7.812140509489726e-05,0.0003526168381794984,0.0,1.2009682532858392e-15,9.80665,1.0
448,130.302,0.908,-0.0018602343391248008,-5.6907817297771665e-05,-0.7072517681520626,-0.7069593145210588,-0.0009393568765372145,0.000480391950113662,6.431826390357776e-06,0.0,1.2009682532858392e-15,9.80665,1.0
449,130.397,0.934,-0.0018462527592636492,-5.90250657131896e-05,-0.7072505141064298,-0.7069606056626466,-0.0008375639664009333,0.0008309947187080568,-0.00029528905544426486,0.0,1.2009682532858392e-15,9.80665,1.0
450,130.502,0.946,-0.0018508151489691211,-6.788937095622743e-05,-0.707245219858476,-0.7069658889321248,-0.00039270011618035907,0.0005343460994843372,-0.0003263490609967246,0.0,1.2009682532858392e-15,9.80665,1.0
451,130.607,0.886,-0.0018698151034593018,-8.14596482849681e-05,-0.7072371065828047,-0.7069739537360781,0.00029189585640284005,-0.0002557927732787621,-0.00013926935112781869,0.0,1.2009682532858392e-15,9.80665,1.0
452,130.716,0.942,-0.0018933105256550378,-9.392950950706421e-05,-0.7072305169658814,-0.706980481885206,0.0008776972382562975,-0.000991541196964306,0.0003188243057876968,0.0,1.2009682532858392e-15,9.80665,1.0
453,130.792,0.88,-0.001927537598922261,-9.497174776475796e-05,-0.7072345936375133,-0.7069763096032323,0.0006953245206642464,-0.00110478593142719,0.0018867643581212687,0.0,1.2009682532858392e-15,9.80665,1.0
454,130.902,0.946,-0.001977076783914292,-9.648025050615672e-05,-0.7072404940832964,-0.7069702707740598,0.00043136400835997433,-0.0012686927839392513,0.004156151275972382,0.0,1.2009682532858392e-15,9.80665,1.0
455,130.991,0.906,-0.0019852058883637,-9.530183502457076e-05,-0.7072434251689799,-0.7069673168238609,0.0003477728343568765,-0.0012497198884375213,0.004315295955166074,0.0,1.2009682532858392e-15,9.80665,1.0
456,131.102,0.924,-0.0019642606580903724,-9.14984238613568e-05,-0.707245287991962,-0.7069655121619627,0.00036996134766377535,-0.0010785904668737178,0.0028823833307251158,0.0,1.2009682532858392e-15,9.80665,1.0
457,131.193,0.954,-0.0019474109806704488,-8.8898387100918e-05,-0.7072465320609225,-0.706964314894641,0.0004012667313218762,-0.0009386364812962578,0.0016922928523270312,0.0,1.2009682532858392e-15,9.80665,1.0
458,131.302,0.932,-0.0019443723850754982,-0.00011339859849625734,-0.7072329318113951,-0.7069779242989203,0.0011378120884764265,-0.0007891916483640808,-0.0005519383568314635,0.0,1.2009682532858392e-15,9.80665,1.0
459,131.393,0.872,-0.001941835575909071,-0.00013385290342264708,-0.7072215774746337,-0.7069892862786397,0.001752726102247822,-0.0006644257786683767,-0.0024255625773220877,0.0,1.2009682532858392e-15,9.80665,1.0
460,131.502,0.856,-0.0019457973685326532,-0.00014931747305638114,-0.707214594489774,-0.7069962579504359,0.0016698486334458342,-0.0007901190371026448,-0.0034637394810162264,0.0,1.2009682532858392e-15,9.80665,1.0
461,131.606,0.89,-0.001954833246167021,-0.00015728879296650827,-0.7072128999987632,-0.7069979262803079,0.0009755587538768096,-0.0011166173652133217,-0.0035488005705266745,0.0,1.2009682532858392e-15,9.80665,1.0
462,131.702,0.894,-0.001963785384598647,-0.00016384770475922776,-0.7072110158458534,-0.7069997847973217,0.00048666628077618477,-0.0013909803796559536,-0.003461495861411238,0.0,1.2009682532858392e-15,9.80665,1.0
463,131.794,0.906,-0.001977402881397381,-0.0001635463440898003,-0.7072065728053099,-0.7070041910135135,0.001270799304358694,-0.001431221293285491,-0.00201117394119495,0.0,1.2009682532858392e-15,9.80665,1.0
464,131.902,0.894,-0.0019933886385089315,-0.00016319257286916822,-0.7072013570620631,-0.7070093635281736,0.002191303288563912,-0.0014784606266766698,-0.00030862212181123573,0.0,1.2009682532858392e-15,9.80665,1.0
465,131.989,0.896,-0.0019916970693893785,-0.00015557575710179413,-0.7072078692179312,-0.7070028554071736,0.0021628158009914192,-0.0013521191356404482,0.0004246296346127704,0.0,1.2009682532858392e-15,9.80665,1.0
466,132.102,0.856,-0.001973395349200393,-0.00013757800814439056,-0.707228170539777,-0.7069826022797213,0.0012746480888271934,-0.0010062969639433564,0.0006714913784619789,0.0,1.2009682532858392e-15,9.80665,1.0
467,132.194,0.898,-0.0019583792013890635,-0.00012343297313111378,-0.707243736332401,-0.7069670762307341,0.000581048867199542,-0.0007300604872871371,0.0008139053136112752,0.0,1.2009682532858392e-15,9.80665,1.0
468,132.302,0.924,-0.0019367245304953366,-0.00012451956804714057,-0.7072284815465569,-0.706982395284511,0.0007945684795267682,-0.0005909830632154029,-0.0010587065368889027,0.0,1.2009682532858392e-15,9.80665,1.0
469,132.422,0.934,-0.0019126637850578625,-0.00012572689573161474,-0.7072115317845079,-0.7069994164553743,0.0010318124932236863,-0.00043645259202458706,-0.003139386370777989,0.0,1.2009682532858392e-15,9.80665,1.0
470,132.502,0.868,-0.00191893571882177,-0.0001114254244272807,-0.707210171181026,-0.707000762426353,0.001244490410666933,-0.0006946236833464685,-0.003696170721203115,0.0,1.2009682532858392e-15,9.80665,1.0
471,132.598,0.878,-0.0019348017675428317,-8.861734859088769e-05,-0.7072122534506797,-0.7069986393348257,0.0015200801002793322,-0.001139431682182526,-0.004053957019001285,0.0,1.2009682532858392e-15,9.80665,1.0
472,132.702,0.858,-0.0019495276581452928,-6.886632654337257e-05,-0.7072148027945873,-0.7069960517335638,0.0017166781874839493,-0.001517881447915009,-0.004350306142121573,0.0,1.2009682532858392e-15,9.80665,1.0
473,132.793,0.866,-0.0019441971751687523,-8.826009282773076e-05,-0.7072192050865349,-0.7069916601038037,0.0011344484020955614,-0.001083910860121232,-0.0039345490410923785,0.0,1.2009682532858392e-15,9.80665,1.0
474,132.918,0.87,-0.0019368750831680105,-0.00011489988167986873,-0.7072252521908586,-0.7069856276453418,0.0003346822133753202,-0.0004877974153496144,-0.0033634541220962824,0.0,1.2009682532858392e-15,9.80665,1.0
475,132.998,0.902,-0.0019374625087376569,-0.00011587902570559028,-0.7072312038042509,-0.7069796722347228,-2.745254593896791e-05,-0.00040207931958138475,-0.0033075909325852885,0.0,1.2009682532858392e-15,9.80665,1.0
476,133.107,0.854,-0.0019411621800404357,-0.00010837795717199612,-0.7072404572276794,-0.7069704063966429,-0.0004385504070669292,-0.00044791052676737217,-0.003401710091158745,0.0,1.2009682532858392e-15,9.80665,1.0
477,133.196,0.91,-0.0019436126542677916,-0.00010275483759968408,-0.7072474281962552,-0.706963426995672,-0.0007651134207844646,-0.00046663883375005485,-0.0034376722574234343,0.0,1.2009682532858392e-15,9.80665,1.0
478,133.324,0.856,-0.0019333560498138271,-0.00010678735980207944,-0.7072433293794957,-0.7069675548648273,-0.0010148069337010575,-4.1905254591224255e-05,-0.0025014795064925432,0.0,1.2009682532858392e-15,9.80665,1.0
479,133.422,0.884,-0.0019255033370287626,-0.00010987475961328757,-0.7072401912229144,-0.7069707152646493,-0.0012059785295277727,0.00028328139195216845,-0.0017847069315612715,0.0,1.2009682532858392e-15,9.80665,1.0
480,133.522,0.906,-0.0019297285908487177,-0.00011973476744000681,-0.7072372393431468,-0.7069736549725102,-0.0010430502987734218,-0.0003770732931212775,-0.0013291412411143096,0.0,1.2009682532858392e-15,9.80665,1.0
481,133.597,0.88,-0.0019350505524631555,-0.00012831016587732573,-0.7072350694712441,-0.7069758095811057,-0.0008578724176826929,-0.0010468891039824904,-0.0010359934827988012,0.0,1.2009682532858392e-15,9.80665,1.0
482,133.702,0.884,-0.0019429727470655048,-0.00013755986123511563,-0.7072336145701428,-0.7069772416279168,-0.0005719749792479445,-0.001871931673958919,-0.0004580959863962619,0.0,1.2009682532858392e-15,9.80665,1.0
483,133.799,0.922,-0.001954428866338928,-0.00012191884407249508,-0.7072461625222365,-0.7069646595243735,-7.39887254312669e-05,-0.0016450410066172494,0.0015457009382080146,0.0,1.2009682532858392e-15,9.80665,1.0
484,133.902,0.91,-0.0019665936115467863,-0.0001053103413121913,-0.7072594866363153,-0.7069512991463842,0.00045480080181722264,-0.0014041158650070903,0.003673444064333612,0.0,1.2009682532858392e-15,9.80665,1.0
485,134.001,0.936,-0.0019642620694860927,-0.00010470044814549975,-0.7072681156340894,-0.7069426730380325,0.0003887452452224472,-0.00045898281147376853,0.0039604121453914115,0.0,1.2009682532858392e-15,9.80665,1.0
486,134.102,0.944,-0.0019521836421869014,-0.00011469775479986609,-0.707274029414403,-0.7069367883123279,-7.587309365215283e-05,0.0009987893760861645,0.0030371353176294634,0.0,1.2009682532858392e-15,9.80665,1.0
487,134.201,0.916,-0.0019407876718592464,-0.0001243023695195791,-0.7072791193314261,-0.7069317259965486,-0.0004531150942726743,0.0023302790566291456,0.0020771496872210703,0.0,1.2009682532858392e-15,9.80665,1.0
488,134.314,0.916,-0.001939796849352529,-0.0001299864805628158,-0.7072657698049862,-0.7069450832253865,0.0012355356847827573,0.0012092574986592361,-0.0005093336143357115,0.0,1.2009682532858392e-15,9.80665,1.0
489,134.404,0.906,-0.0019390076986834622,-0.0001345136486503496,-0.7072551374387953,-0.7069557217262309,0.0025804787831455464,0.0003164084701875896,-0.0025693645624783675,0.0,1.2009682532858392e-15,9.80665,1.0
490,134.502,0.898,-0.0019424284256883539,-0.00013767772423632383,-0.7072478036888002,-0.7069630486053393,0.0033675882499665105,-0.00043838678160683793,-0.002873996254056671,0.0,1.2009682532858392e-15,9.80665,1.0
491,134.596,0.894,-0.0019483095732163703,-0.00013964013813422494,-0.707243347260481,-0.7069674902113099,0.0037110714614391194,-0.0010302962446585072,-0.0019885802473873244,0.0,1.2009682532858392e-15,9.80665,1.0
492,134.709,0.88,-0.00195838393794858,-0.0001392779207687052,-0.7072382380725427,-0.7069725734619675,0.003998835216320707,-0.0017502383196851907,-0.0011329407829584264,0.0,1.2009682532858392e-15,9.80665,1.0
493,134.81,0.902,-0.0019825531571825965,-0.00012521881136801628,-0.7072349232406887,-0.7069758241317129,0.00362437706263291,-0.002436080564086958,-0.0014217721505297661,0.0,1.2009682532858392e-15,9.80665,1.0
494,134.908,0.906,-0.0020060044788155987,-0.00011157729927626072,-0.7072317068691867,-0.7069789782469114,0.0032610414283616353,-0.0031015512566747137,-0.0017020243685692427,0.0,1.2009682532858392e-15,9.80665,1.0
495,135.009,0.896,-0.0020432168528400295,-7.445085888173228e-05,-0.7072333185148234,-0.7069772610579319,0.002294178025031014,-0.0026362633741942214,-0.001373715641684953,0.0,1.2009682532858392e-15,9.80665,1.0
496,135.102,0.918,-0.002084133423017646,-2.850131488289522e-05,-0.7072373148963181,-0.7069731463894791,0.0011017847197850907,-0.0016207799142706886,-0.0007566842189501561,0.0,1.2009682532858392e-15,9.80665,1.0
497,135.197,0.936,-0.002123039228826714,1.8085081755957426e-05,-0.7072419803085698,-0.7069683680058592,-6.3672168180336e-05,-0.0006396024581044899,-0.00015329778310843372,0.0,1.2009682532858392e-15,9.80665,1.0
498,135.313,0.88,-0.0021070109286417085,6.7248108835903e-05,-0.7072604926624738,-0.7069498904492032,-0.00033111905120308767,-0.0006755270268768013,-8.08312394658624e-06,0.0,1.2009682532858392e-15,9.80665,1.0
499,135.401,0.894,-0.002094851528501355,0.00010454419834484132,-0.7072745365171597,-0.7069358729924297,-0.0005340097900480105,-0.0007027801480144272,0.00010207972093485702,0.0,1.2009682532858392e-15,9.80665,1.0
500,135.502,0.858,-0.0021063906307022995,0.00014105223389636478,-0.7072788971055893,-0.7069314696674137,0.000501803345978303,-0.0008590518869459685,-0.0006013333797455118,0.0,1.2009682532858392e-15,9.80665,1.0
501,135.6,0.88,-0.002134490950237307,0.00017230026627315295,-0.7072753322393943,-0.7069349446421066,0.0023480282463130896,-0.0010935565149411252,-0.0018340737000106136,0.0,1.2009682532858392e-15,9.80665,1.0
502,135.709,0.92,-0.002164811106767597,0.00019594250920481346,-0.7072737091909471,-0.7069364715009624,0.004085597808550115,-0.0013030984166553156,-0.0027135157968716937,0.0,1.2009682532858392e-15,9.80665,1.0
503,135.799,0.838,-0.00218567133176594,0.00016580497893911635,-0.7072828339237148,-0.7069272842888685,0.004108779899879055,-0.001246952710363996,-0.0012426811285139387,0.0,1.2009682532858392e-15,9.80665,1.0
504,135.902,0.864,-0.0022095447003751493,0.00013131424985727094,-0.7072932766734378,-0.7069167700350277,0.004135310515511057,-0.0011826970687195005,0.000440607436383994,0.0,1.2009682532858392e-15,9.80665,1.0
505,135.999,0.82,-0.0022089362406385316,9.948729985670948e-05,-0.7072960159914635,-0.7069140364444289,0.0036352108498769148,-0.0006749818816647998,0.0002174075759415118,0.0,1.2009682532858392e-15,9.80665,1.0
506,136.102,0.936,-0.0021887653850261608,6.624517949489364e-05,-0.7072929254640296,-0.7069171948348636,0.0026601908122381073,0.00024227129751894488,-0.0015487219410254469,0.0,1.2009682532858392e-15,9.80665,1.0
507,136.203,0.868,-0.0021688644546989985,3.473277343848884e-05,-0.7072908752659679,-0.7069193111235551,0.0017208448250074769,0.0010673068036154208,-0.0031720901250231024,0.0,1.2009682532858392e-15,9.80665,1.0
508,136.302,0.944,-0.00214746819335314,2.067150716937821e-05,-0.7073040800246778,-0.7069061640907872,0.001059926414330172,0.0007212241263395331,-0.003079917414912167,0.0,1.2009682532858392e-15,9.80665,1.0
509,136.4,0.856,-0.0021262880558592548,6.752273892881515e-06,-0.7073171514019866,-0.70689314985633,0.0004056839471949052,0.0003786372336825115,-0.002988675742277078,0.0,1.2009682532858392e-15,9.80665,1.0
510,136.502,0.942,-0.0021141030777110017,-1.603683774901446e-05,-0.7073125655160608,-0.7068977743556305,0.0002994855633005566,7.63361365534303e-05,-0.002645394802093494,0.0,1.2009682532858392e-15,9.80665,1.0
511,136.594,0.846,-0.0021093378206177575,-4.183321754202888e-05,-0.7072969440620764,-0.7069134174657725,0.0005665788054465865,-0.00016206368291747162,-0.0021789895072580052,0.0,1.2009682532858392e-15,9.80665,1.0
512,136.702,0.914,-0.0021037477236741015,-7.131159309996695e-05,-0.7072793897390198,-0.706930996539327,0.0008097227802500505,-0.00040651213610545686,-0.0017038864083587925,0.0,1.2009682532858392e-15,9.80665,1.0
513,136.798,0.898,-0.0020988127264207133,-9.050797552928498e-05,-0.7072706145845072,-0.7069397878408665,0.0004125862186774837,-0.00031532000238076394,-0.001912397760897863,0.0,1.2009682532858392e-15,9.80665,1.0
514,136.902,0.844,-0.0020934664793962102,-0.00011130405649437571,-0.7072611081671186,-0.7069493117508677,-1.76450563593852e-05,-0.00021652852417903127,-0.0021382850594818146,0.0,1.2009682532858392e-15,9.80665,1.0
515,137.002,0.848,-0.0020326629138212016,-0.00015310384346915477,-0.7072747454968171,-0.7069358265061221,-0.000580407171510175,0.0002797251311130994,-0.0010383237898349312,0.0,1.2009682532858392e-15,9.80665,1.0
516,137.102,0.85,-0.001934750719288828,-0.000209439333962304,-0.7073035682369483,-0.706907246027699,-0.0012425547512247932,0.0010434866859577337,0.0009397445432841101,0.0,1.2009682532858392e-15,9.80665,1.0
517,137.202,0.858,-0.0018418237590504126,-0.0002626637456604013,-0.7073294797436445,-0.7068815636805614,-0.0017662502499297917,0.0016750952741131698,0.002585139805451158,0.0,1.2009682532858392e-15,9.80665,1.0
518,137.302,0.906,-0.0017937639074576612,-0.0002878884482030048,-0.7073291901494256,-0.7068819645149911,-0.0010438770195470327,0.0011173271620646946,0.0012364774290474262,0.0,1.2009682532858392e-15,9.80665,1.0
519,137.404,0.874,-0.0017447428588330501,-0.0003136176447964628,-0.7073288947633224,-0.7068823733661093,-0.00030705632455654873,0.000548403687775196,-0.00013915819488451078,0.0,1.2009682532858392e-15,9.80665,1.0
520,137.504,0.902,-0.0017289984599241299,-0.00033660387487848285,-0.7073198585866914,-0.7068914441868042,0.0009523972440508351,-0.0002472026813773739,-0.0006850829632021396,0.0,1.2006704131590244e-15,9.8042179508,1.0
521,137.598,0.856,-0.001732816595431473,-0.00035692128218313483,-0.7073063254205976,-0.7069049657890542,0.0024457111740485774,-0.0011320981932804546,-0.0007357718041166694,0.0,1.200218849095789e-15,9.800530650399999,1.0
522,137.718,0.9,-0.0017403821698441795,-0.00037221200258268067,-0.7072924304200565,-0.7069188426235375,0.003727443866891959,-0.002033194890653933,-0.00044331201366117567,0.0,1.1998916881185511e-15,9.797859178286851,1.0
523,137.811,0.896,-0.0017537864705441482,-0.0003542319301913458,-0.7072911361660718,-0.7069201132619112,0.0029706340570715404,-0.002091145284837518,0.0007841042447018583,0.0,1.2003366683876968e-15,9.801492717928287,1.0
524,137.91,0.908,-0.0017680555648376588,-0.0003350918531296079,-0.7072897584118298,-0.7069214658769541,0.0021649978079081077,-0.0021528344141297034,0.0020907086487653463,0.0,1.2008103570613034e-15,9.805360679482071,1.0
525,137.994,0.91,-0.0017796862700326867,-0.00032315672458536654,-0.7072833626408783,-0.7069278411843468,0.0016619450158821601,-0.001837014832186127,0.0015775920200466701,0.0,1.2009682532858392e-15,9.80665,1.0
526,138.102,0.9,-0.0017942436968267363,-0.0003113929773587926,-0.7072707911877397,-0.7069403870482069,0.0011653411615898238,-0.0011246751556285514,-0.0004313168906976057,0.0,1.2009682532858392e-15,9.80665,1.0
527,138.218,0.908,-0.001808448864652316,-0.00028801075213827685,-0.7072565629077141,-0.7069545946651687,0.0006002912605182381,-0.0006163853667675862,-0.002430636335164084,0.0,1.2009682532858392e-15,9.80665,1.0
528,138.305,0.926,-0.001815388716892969,-0.00024257298597445712,-0.7072440079073412,-0.7069671518784694,9.43081083241877e-05,-0.0009019013252109278,-0.003518901552073652,0.0,1.2009682532858392e-15,9.80665,1.0
529,138.419,0.88,-0.00182448231638072,-0.00018303384410463407,-0.7072275565275424,-0.7069836061579668,-0.0005687042979989425,-0.0012760256845504177,-0.004944904250092853,0.0,1.2009682532858392e-15,9.80665,1.0
530,138.507,0.872,-0.001824545115549328,-0.00013858630856323893,-0.7072326474239584,-0.7069785221922447,-0.0005734641500748738,-0.0012241821142379243,-0.004179757195524908,0.0,1.2009682532858392e-15,9.80665,1.0
531,138.605,0.87,-0.001821873674127777,-8.968392782182608e-05,-0.7072453271681995,-0.7069658520153167,-0.00037896308442581195,-0.0010322154916357594,-0.002592384324409351,0.0,1.2009682532858392e-15,9.80665,1.0
532,138.706,0.848,-0.001822436230263892,-4.1264331142921396e-05,-0.7072560252036292,-0.7069551550531116,-0.00018565642992519668,-0.0009339984417780717,-0.0012234534875329684,0.0,1.2009682532858392e-15,9.80665,1.0
533,138.821,0.916,-0.0018465381100573998,-1.4149203699969682e-07,-0.7072514377533077,-0.7069596815517359,-1.6135413596698523e-05,-0.0015270887531777353,-0.0015542224699823938,0.0,1.2009682532858392e-15,9.80665,1.0
534,138.903,0.93,-0.0018637237982579854,2.9180880195044233e-05,-0.707248166701774,-0.7069629091420595,0.0001047404415244725,-0.0019499879317409073,-0.0017900751357289033,0.0,1.2009682532858392e-15,9.80665,1.0
535,139.007,0.938,-0.001882169873027638,4.935487153836577e-05,-0.7072506204101647,-0.706960405153985,-5.044376469963015e-05,-0.0016174583932477048,-0.0022077190968375626,0.0,1.2009682532858392e-15,9.80665,1.0
536,139.102,0.914,-0.001897106859935667,5.806873931326033e-05,-0.7072566311541035,-0.7069543512457667,-0.0003683197585919023,-0.0008176447531174726,-0.00265688188784355,0.0,1.2009682532858392e-15,9.80665,1.0
537,139.203,0.93,-0.0019095745350455773,6.49233397380718e-05,-0.7072633548474577,-0.7069475907875667,-0.0006751891196472446,-0.00010314524843124648,-0.0030348121217684955,0.0,1.2009682532858392e-15,9.80665,1.0
538,139.302,0.934,-0.0019040243637150663,5.909460267859965e-05,-0.7072716811143988,-0.7069392760035447,-0.0008141232328852947,-0.00011009520903826242,-0.0028866074926554865,0.0,1.2009682532858392e-15,9.80665,1.0
539,139.41,0.916,-0.0018979696313545082,5.273598043190186e-05,-0.7072807643146981,-0.7069302053300661,-0.0009656877200540986,-0.00011767698424591725,-0.002724929715441272,0.0,1.2009682532858392e-15,9.80665,1.0
540,139.508,0.91,-0.0019152869323589875,5.0629956750233095e-05,-0.7072779568813016,-0.7069329668369012,-0.0005239949584938757,-0.0004238530935253845,-0.002874160120263689,0.0,1.2009682532858392e-15,9.80665,1.0
541,139.606,0.898,-0.0019441854107472263,5.0384035054940725e-05,-0.7072695396526923,-0.7069413090514841,0.00021176511840881665,-0.0008819796575698187,-0.003173635980114287,0.0,1.2009682532858392e-15,9.80665,1.0
542,139.71,0.938,-0.001972041170465293,4.80062034349419e-05,-0.7072623586619606,-0.706948417238666,0.0008617735342122622,-0.0012851799572817994,-0.003347141955047868,0.0,1.2009682532858392e-15,9.80665,1.0
543,139.797,0.888,-0.001983305050678724,3.695457613575611e-05,-0.7072638501843883,-0.7069468939383866,0.0008455692911520629,-0.0012672482598573003,-0.0028745003938675743,0.0,1.2009682532858392e-15,9.80665,1.0
544,139.905,0.902,-0.001997287798529883,2.323531466090255e-05,-0.707265701729471,-0.7069450029449363,0.0008254536790773293,-0.00124498822167516,-0.0022877729386091825,0.0,1.2009682532858392e-15,9.80665,1.0
545,139.995,0.912,-0.002005081710953013,1.102205618724389e-05,-0.7072736267461329,-0.7069370522136287,0.00045205284841363946,-0.0010193533506244737,-0.000942627247423098,0.0,1.2009682532858392e-15,9.80665,1.0
546,140.111,0.932,-0.002011493068201776,-5.454652782988992e-06,-0.7072898523511928,-0.7069208002081633,-0.0003651294857262011,-0.0005334859332070676,0.0015975598245854318,0.0,1.2009682532858392e-15,9.80665,1.0
547,140.213,0.892,-0.0020219291146014416,-2.0426107052796292e-05,-0.7073021257952788,-0.7069084903209246,-0.000743368300609472,-0.00027425548294551425,0.003200360750779685,0.0,1.2009682532858392e-15,9.80665,1.0
548,140.308,0.962,-0.002049972544927517,-3.621570324897932e-05,-0.7073059429894221,-0.7069045886679959,0.00020389835583026813,-0.0006743363535496521,0.002284330110997148,0.0,1.2009682532858392e-15,9.80665,1.0
549,140.397,0.854,-0.002076244811232998,-5.100806179066652e-05,-0.7073095190976195,-0.7069009334352522,0.0010913376444948637,-0.0010491489586419483,0.0014261540379377213,0.0,1.2009682532858392e-15,9.80665,1.0
550,140.507,0.87,-0.00213552818281667,-5.80074786944873e-05,-0.7073023653901128,-0.7069079102203015,0.0017762015387415638,-0.001550134152173962,0.00112688660807906,0.0,1.2009682532858392e-15,9.80665,1.0
551,140.596,0.87,-0.0021990859300181466,-5.710903512452034e-05,-0.7072898469378446,-0.7069202395105453,0.002090743402950436,-0.0019774201270192455,0.0013275318909436278,0.0,1.2009682532858392e-15,9.80665,1.0
552,140.713,0.824,-0.0022781988410153073,-5.45799878033135e-05,-0.7072738903322302,-0.7069359586429306,0.0024986194912343627,-0.0024737177416681968,0.0011425272654745676,0.0,1.2009682532858392e-15,9.80665,1.0
553,140.794,0.838,-0.002318059377878541,-4.8303116449739555e-05,-0.7072645230904313,-0.7069451990878295,0.0027621157234534593,-0.002597663584165274,-0.000492398764006775,0.0,1.2009682532858392e-15,9.80665,1.0
554,140.904,0.918,-0.0023721909711495797,-3.9778970167111236e-05,-0.7072518021447783,-0.7069577478401614,0.003119950112886676,-0.002765985098667419,-0.002712668680585604,0.0,1.2009682532858392e-15,9.80665,1.0
555,140.996,0.894,-0.0024012052745405912,-2.8844445054169696e-05,-0.7072524026287081,-0.7069570507253795,0.002559245359152591,-0.002029738785000559,-0.0023067946573719993,0.0,1.2009682532858392e-15,9.80665,1.0
556,141.102,0.902,-0.0024208496606394937,-1.3019789465062654e-05,-0.7072626239034852,-0.7069467582896166,0.0011840987391770947,-0.0004378909019288903,7.932660263013352e-05,0.0,1.2009682532858392e-15,9.80665,1.0
