,time,img_sim,orientation.x,orientation.y,orientation.z,orientation.w,angular_velocity.x,angular_velocity.y,angular_velocity.z,linear_acceleration.x,linear_acceleration.y,linear_acceleration.z,ground_truth
0,163.355,0.9979879275653923,-0.0001232089546328887,0.0007357669157423187,-0.7075069566711709,-0.7067059853492802,0.0002576025144662708,-0.0002922328712884337,-0.0002442309923935681,0.0,-0.0196132999999988,9.80665,1.0
1,163.399,0.9979879275653923,-0.00012465148207196,0.0007355473055724404,-0.707507030370617,-0.7067059114893772,0.000257906142389402,-0.00029118756041862003,-0.00024243841401766852,0.0,-0.0196132999999988,9.80665,1.0
2,163.515,0.9737903225806451,-0.00014855622249083583,0.0007319080513287474,-0.7075082516757244,-0.70670468752527,0.00026293769082985776,-0.00027386526600457875,-0.00021273282950278613,0.0,-0.0196132999999988,9.80665,1.0
3,163.607,0.9899193548387096,-0.00016751515454719066,0.0007290217462389212,-0.7075092202970165,-0.706703716795116,0.0002669282292481513,-0.0002601268945727492,-0.00018917322799097657,0.0,-0.0196132999999988,9.80665,1.0
4,163.715,0.9939516129032258,-0.00018574992135356175,0.0007276858534771252,-0.7075108784334608,-0.7067020536023536,0.00026932514598593124,-0.00026943903404753807,-0.00021093677147291913,0.0,-0.0196132999999988,9.80665,1.0
5,163.803,0.9919354838709677,-0.00019903687211752927,0.0007273991399388826,-0.7075124330670335,-0.7067004938406309,0.0002703844937495887,-0.00028696513071190595,-0.0002479768579360103,0.0,-0.0196132999999988,9.80665,1.0
6,163.915,0.9959677419354839,-0.00021557999516101206,0.0007276766773264535,-0.7075145541551344,-0.7066983653346937,0.00028078592649799256,-0.00030804486338883205,-0.0002775693962857303,0.0,-0.0196132999999988,9.80665,1.0
7,163.995,0.9939516129032258,-0.00022638063586588952,0.0007296506217932457,-0.7075164629837869,-0.7066964487446088,0.00031323826368748973,-0.0003197126053825381,-0.0002502008460707043,0.0,-0.0196132999999988,9.80665,1.0
8,164.035,0.9959758551307847,-0.00023178095621832634,0.0007306375940266415,-0.7075174173981131,-0.7066954904495664,0.0003294644322822326,-0.000325546476379389,-0.00023651657096319617,0.0,-0.0196132999999988,9.80665,1.0
9,164.115,0.9919517102615694,-0.0002425815969232038,0.0007326115384934336,-0.7075193262267656,-0.7066935738594814,0.00036191676947172976,-0.000337214218373095,-0.00020914802074817015,0.0,-0.0196132999999988,9.80665,1.0
10,164.235,0.9899396378269618,-0.00025432528825446355,0.0007344295835135165,-0.7075212930330238,-0.7066915987296682,0.0003667559372205497,-0.00033715312901153277,-0.00022393611732377368,0.0,-0.01594069003983863,9.80665,1.0
11,164.315,0.9959839357429718,-0.0002613325079158882,0.0007354308712312828,-0.7075224389368079,-0.7066904478887869,0.00036189819948629,-0.00033387389028003334,-0.00024409175595821542,0.0,-0.012815064541831341,9.80665,1.0
12,164.435,0.9959839357429718,-0.00026904052510146476,0.0007374391104424233,-0.7075243603795525,-0.7066885192600696,0.0003511896246786322,-0.0003144116959751626,-0.0002544607993343321,0.0,-0.0098066499999988,9.80665,1.0
13,164.515,0.9979919678714859,-0.0002708332102390534,0.0007393823658522652,-0.7075258831895106,-0.7066869919217089,0.00033996543446759977,-0.0002840750875550765,-0.00023765938759566458,0.0,-0.0098066499999988,9.80665,1.0
14,164.631,0.9919678714859438,-0.00027343260368855774,0.0007422000861965367,-0.7075280912639499,-0.7066847772810859,0.00032369035866159756,-0.00024008700534593755,-0.00021329734057458897,0.0,-0.0098066499999988,9.80665,1.0
15,164.715,0.9979879275653923,-0.0002744322298713619,0.0007413693198011741,-0.70752971939875,-0.7066831476779122,0.00033842694576751223,-0.00023503061236690236,-0.00022345151736805036,0.0,-0.0098066499999988,9.80665,1.0
16,164.835,0.9959758551307847,-0.0002756501022249717,0.0007394988952897758,-0.7075320522542607,-0.7066808135072127,0.0003657939718301287,-0.00023418744284020037,-0.00024457549829182053,0.0,-0.0098066499999988,9.80665,1.0
17,164.916,0.9758551307847082,-0.00027485960501307904,0.000739155279800897,-0.7075335350513258,-0.7066793295805058,0.0003760384877678006,-0.00024101756094023616,-0.00025385177694261065,0.0,-0.0098066499999988,9.8075914384,1.0
18,165.034,0.9899193548387096,-0.0002681287543287819,0.0007418340575582365,-0.7075353772805885,-0.7066774848686842,0.0003624939490109687,-0.00027656812709756076,-0.000250126849859953,0.0,-0.009806649999998798,9.812220177199999,1.0
19,165.115,0.9939516129032258,-0.00026350842462176323,0.0007436728795781058,-0.7075366418616924,-0.7066762185834508,0.0003531964266439885,-0.0003009714818326797,-0.00024756990838795855,0.0,-0.009806649999998798,9.8153975318,1.0
20,165.235,0.9939516129032258,-0.0002556507167237742,0.0007450674562225641,-0.7075388298788546,-0.7066740292747464,0.0003727229899472681,-0.00030114650932711924,-0.00023895545444725707,0.0,-0.009806649999998798,9.812823110358565,1.0
21,165.315,0.9959677419354839,-0.00025021622382429204,0.0007457398312515265,-0.7075403494402547,-0.7066725090909817,0.00039218598988326414,-0.00029429969291084007,-0.00023227834466944987,0.0,-0.0098066499999988,9.809697484860557,1.0
22,165.431,0.9959758551307847,-0.00024118533657395964,0.0007470039108547104,-0.7075423387399521,-0.7066705191406628,0.00037845655670388595,-0.0002950246939435623,-0.0002295565702952455,0.0,-0.0098066499999988,9.80665,1.0
23,165.515,0.9919517102615694,-0.00023293508498027442,0.0007483490469545887,-0.7075434610845814,-0.7066693966991772,0.0003061593966558699,-0.0003113840189762386,-0.0002379309451207504,0.0,-0.0098066499999988,9.80665,1.0
24,165.627,0.9919517102615694,-0.0002219347495220219,0.0007501425617544273,-0.7075449575440873,-0.7066679001105297,0.00020976318325846625,-0.0003331964523531514,-0.0002490967782214292,0.0,-0.0098066499999988,9.80665,1.0
25,165.719,0.9939759036144579,-0.0002116322964709238,0.000750771232596663,-0.7075455890475197,-0.7066672702192278,0.00023000830285116263,-0.0003418275405256351,-0.00024839165483986646,0.0,-0.012799844377508637,9.80665,1.0
26,165.835,0.9959839357429718,-0.00019830606909435088,0.0007513397156927423,-0.707546226625498,-0.7066666351300285,0.0002819274717672631,-0.0003502452121879241,-0.0002448807585513193,0.0,-0.017368404216866702,9.80665,1.0
27,165.915,0.9959839357429718,-0.00018895907924668025,0.0007513794023928884,-0.7075467439408497,-0.7066661197362731,0.00030954709762161877,-0.00035035809136990285,-0.0002394776838410474,0.0,-0.0196132999999988,9.80665,1.0
28,166.035,0.9899598393574297,-0.0001743568665690736,0.0007501290330108981,-0.7075478084072377,-0.706665058915077,0.000320543378171329,-0.00032936648868740504,-0.0002202886773367968,0.0,-0.0196132999999988,9.80665,1.0
29,166.115,0.993963782696177,-0.00016462205811733466,0.0007492954534229046,-0.7075485180514965,-0.7066643517009463,0.0003278742318711367,-0.0003153720868990715,-0.00020749600633396156,0.0,-0.0196132999999988,9.80665,1.0
30,166.235,0.9979879275653923,-0.0001555295496762528,0.0007451259110322333,-0.7075486929484902,-0.7066641830625512,0.00030476435949094234,-0.0003166561720427134,-0.0001929926585871712,0.0,-0.016004452799998292,9.80665,1.0
31,166.315,0.9758551307847082,-0.00015058578838671115,0.0007417539201323444,-0.7075486290541453,-0.7066642516595518,0.00028243768890388394,-0.00032203193358145636,-0.00018427447346039145,0.0,-0.012866324799998916,9.80665,1.0
32,166.419,0.9879032258064516,-0.00014327617645163565,0.0007381500949579714,-0.7075483702083695,-0.7066645161368527,0.0002740328509826267,-0.0003263935712166127,-0.0001863975666929079,0.0,-0.0098066499999988,9.80665,1.0
33,166.515,0.9959677419354839,-0.0001340843807183324,0.0007369828307845059,-0.7075476444897624,-0.7066652457192228,0.0003233756173867659,-0.0003231453378684824,-0.00022562214662320322,0.0,-0.0098066499999988,9.80665,1.0
34,166.635,0.9919354838709677,-0.00012259463605169993,0.0007355237505676735,-0.7075467373415035,-0.7066661576971857,0.0003850540753919581,-0.0003190850461833183,-0.0002746528715360869,0.0,-0.0098066499999988,9.80665,1.0
35,166.715,0.9959677419354839,-0.00011791898519465224,0.0007313326942455045,-0.7075457715151747,-0.706667129825138,0.00037406121310777906,-0.00031466838577762235,-0.00025238610175438124,0.0,-0.012630965199998907,9.80665,1.0
36,166.835,0.993963782696177,-0.00011140287206253343,0.0007245097203993154,-0.7075442625988777,-0.7066686487075071,0.00034888661396689563,-0.0003077584286220368,-0.00020982696046121157,0.0,-0.017338157199999087,9.80665,1.0
37,166.915,0.9919517102615694,-0.00010784728173158298,0.0007195045288750794,-0.7075432109702514,-0.7066697073301023,0.00033160496363416513,-0.0003069037282839408,-0.00019909301190636664,0.0,-0.01875031479999914,9.80665,1.0
38,167.035,0.9919517102615694,-0.00010563199636561732,0.0007101913243373744,-0.7075414528661645,-0.7066714773089209,0.00030371081409975983,-0.0003204588862136002,-0.00025274557410739175,0.0,-0.014043122799998961,9.80665,1.0
39,167.115,0.9939759036144579,-0.00010415513945497336,0.0007039825213122371,-0.7075402807967732,-0.7066726572948,0.0002851147144101541,-0.00032949565816670757,-0.0002885139489080794,0.0,-0.01090499479999847,9.80665,1.0
40,167.235,0.9939759036144579,-0.00010292218883958763,0.0006951005967672153,-0.7075377665738021,-0.7066751835315193,0.0002880388841269518,-0.0003189428192969871,-0.00029900383725318854,0.0,-0.013386855555554723,9.80665,1.0
41,167.315,0.9979919678714859,-0.000102299536059883,0.0006892668198226742,-0.7075359370097289,-0.7066770211329642,0.00029624132291665054,-0.00030701611577237673,-0.0002972394521791667,0.0,-0.01650007777777621,9.80665,1.0
42,167.429,0.9899598393574297,-0.00010287741078678508,0.0006799136449700157,-0.7075333425530661,-0.7066796277061649,0.0004986170454010456,-0.0002889880885167301,-0.00029183515993457714,0.0,-0.0196132999999988,9.80665,1.0
43,167.515,0.993963782696177,-0.00010591403918584987,0.0006710116384965475,-0.707531407824751,-0.706681572752371,0.0009897612335700043,-0.00027355532849117743,-0.00028262833591490705,0.0,-0.0196132999999988,9.80665,1.0
44,167.635,0.9979879275653923,-0.00011015119509152262,0.0006585902341149613,-0.7075287082038463,-0.7066842867703331,0.0016750787054338185,-0.00025202124473458764,-0.00026978160472466685,0.0,-0.0196132999999988,9.80665,1.0
45,167.715,0.9758551307847082,-0.00011000735931440167,0.0006551461390134286,-0.7075272463393191,-0.7066857536019101,0.0013105113524943435,-0.0002710871456656613,-0.0002634457130916414,0.0,-0.022437615199998907,9.8010013696,1.0
46,167.835,0.9879032258064516,-0.00010929683791856921,0.0006507861365532743,-0.7075251098563188,-0.7066878967636536,0.0006267527118324818,-0.0003052563231904081,-0.00025431330827996074,0.0,-0.027144807199999087,9.791586985599999,1.0
47,167.915,0.9959677419354839,-0.00010866916293573942,0.0006479556403802402,-0.707523793610914,-0.7066892172737541,0.00029943349491804713,-0.0003201182475313551,-0.00024110645521432502,0.0,-0.02769397959999948,9.788762670399999,1.0
48,168.035,0.9939516129032258,-0.00010711867398204322,0.0006440111222859114,-0.7075222466366156,-0.7066907699024328,0.00031669236440211475,-0.00031110091228038104,-0.00019314541481435459,0.0,-0.018279595599999122,9.7981770544,1.0
49,168.115,0.9959677419354839,-0.00010608501467957898,0.0006413814435563586,-0.7075212153204166,-0.7066918049882186,0.0003281982773914945,-0.0003050893554463976,-0.00016117138788103718,0.0,-0.01200333959999814,9.8044533104,1.0
50,168.235,0.993963782696177,-0.00010479996329553073,0.0006393276326723882,-0.7075194856666674,-0.7066935387202874,0.0003484738701954507,-0.0003102462971583019,-0.00020786412758753514,0.0,-0.0098066499999988,9.80665,1.0
51,168.315,0.9899396378269618,-0.0001039971192710215,0.0006383420471692343,-0.7075182954987722,-0.7066947312872821,0.0003626030208542938,-0.00031656019855290634,-0.000258197735529391,0.0,-0.0098066499999988,9.80665,1.0
52,168.435,0.993963782696177,-0.00010293705989693967,0.0006367487757750841,-0.7075168288803756,-0.7066962012086403,0.00037191338953562064,-0.0003225018063094467,-0.00029755798215046485,0.0,-0.0098066499999988,9.80665,1.0
53,168.515,0.9879518072289156,-0.00010240889522992045,0.0006355443461968463,-0.7075162456333303,-0.7066967862915705,0.00036340757389553043,-0.0003220933375414462,-0.00027905318001285523,0.0,-0.0098066499999988,9.80665,1.0
54,168.635,0.9879518072289156,-0.00010161664822939145,0.0006337377018294892,-0.7075153707627622,-0.706697663915966,0.0003506488504353921,-0.0003214806343894453,-0.0002512959768064342,0.0,-0.0098066499999988,9.80665,1.0
55,168.719,0.9879518072289156,-0.00010061867774351672,0.0006327934618279064,-0.7075149470004727,-0.7066980891547833,0.0003625592968892295,-0.00032152259186841553,-0.00023884089430794208,0.0,-0.012787871599998541,9.80665,1.0
56,168.835,0.9879518072289156,-9.917607424056855e-05,0.0006315360873926954,-0.7075143892273167,-0.7066986489013729,0.0003820366554427904,-0.000321648977464065,-0.00022265492239966883,0.0,-0.017338157199999087,9.80665,1.0
57,168.915,0.993963782696177,-9.102073253302134e-05,0.0006221470382363755,-0.7075183210220315,-0.7066947207412059,0.0004642622842660907,0.0006228290473671074,0.0002458305241894381,0.0,-0.0196132999999988,9.80665,1.0
58,169.035,0.9979879275653923,-5.0471423681694896e-05,0.0005743632458433661,-0.7075412883745377,-0.7066717678314138,0.0008596456454291093,0.0057748720526184,0.0027570621276540048,0.0,-0.0196132999999988,9.80665,1.0
59,169.115,0.9979879275653923,-2.3438551114140734e-05,0.0005425073842480227,-0.707556599942875,-0.7066564658915524,0.0011232345528711528,0.009209567389453003,0.004431216529963914,0.0,-0.0196132999999988,9.80665,1.0
60,169.234,0.7414141414141414,0.00012216665160948536,-0.00030009590274829355,-0.707585153332061,-0.7066271175365144,-0.008309212476015453,0.00856758702546351,0.0027264064922927927,0.0,-0.012552511999998494,10.113794278000011,1.0
61,169.315,0.6646464646464646,0.00024439185938556537,-0.0010480458861993691,-0.7076058559831583,-0.70660569627486,-0.016884410683064833,0.006869235344231291,0.0006458845846356942,0.0,-0.006197802799999335,10.390224128199973,1.0
62,169.435,0.641851106639839,0.0005071962097950553,-0.0015109139614390415,-0.707633877663753,-0.7065771628074595,-0.022923175655305567,0.002875633612275305,-0.0009652583487332195,0.0,1.33263280483007e-15,10.881772652799983,1.0
63,169.515,0.635814889336016,0.0007873855736939935,-0.0009906915080037432,-0.7076491561146169,-0.706562253293729,-0.018387175761164318,-0.0016847267001856405,-0.00014963285997529412,0.0,1.385667562895162e-15,11.314834316799896,1.0
64,169.635,0.61,0.0012076696195425004,-0.00021035782785061075,-0.7076720737909127,-0.7065398890231331,-0.011583175919950834,-0.00852526716887868,0.0010738053731618837,0.0,1.465219699992819e-15,11.964426812799921,1.0
65,169.715,0.534,0.0010638679513957157,0.00011493825990763361,-0.707677915661972,-0.7065341938614266,-0.007707011737266072,-0.008686762763164851,0.0007184803306805885,0.0,1.4372840787396265e-15,11.73631515421687,1.0
66,169.835,0.5212121212121212,0.000767547436039968,0.0005658189276485094,-0.7076848841893023,-0.7065274031435472,-0.002018227183024095,-0.008092602299728276,-3.71527565871724e-05,0.0,1.3799848705105639e-15,11.268431612048168,1.0
67,169.915,0.4532520325203252,0.0005490211025960234,0.0007907019501084577,-0.7076873324826223,-0.7065250549415901,0.0013313836416234555,-0.00735315915746299,-0.0005543027965970949,0.0,1.3488165362600735e-15,11.013922848605588,1.0
68,170.035,0.4796747967479675,0.00013826791520299257,0.0008286512213006228,-0.707682315237769,-0.7065301493689601,0.004604283405794203,-0.004886255966892895,-0.0013829976029459848,0.0,1.3298689893158024e-15,10.859204386454193,1.0
69,170.115,0.482897384305835,-0.00013556754305906035,0.0008539507354287359,-0.707678970407867,-0.7065335456538734,0.006786216581908292,-0.0032416538398459694,-0.001935460807178643,0.0,1.3172372913529536e-15,10.756058745019915,1.0
70,170.235,0.4404040404040404,-0.0005227893743143407,0.0007680538259478849,-0.7076745108545793,-0.7065378707219513,0.007645728191360838,-0.002587188003584738,-0.0008723055236040404,0.0,1.2995437275155395e-15,10.611579831999991,1.0
71,170.315,0.45252525252525255,-0.0007759379260815766,0.0006844775768469954,-0.7076716563029766,-0.7065405906470473,0.007706001451238984,-0.002535937396809464,0.00023839618638147155,0.0,1.2880144322839978e-15,10.51743599200001,1.0
72,170.435,0.5020161290322581,-0.0010982425929690189,0.0005667610799353794,-0.70766642255498,-0.7065455924157239,0.007111868578903266,-0.002250577359606178,0.0009146108550120797,0.0,1.2728720071813627e-15,10.393788707630524,1.0
73,170.515,0.5171026156941649,-0.0012393557091001674,0.0004981075171559479,-0.7076617105973433,-0.7065501111330785,0.005836448644336775,-0.001792528456166842,9.39215477333299e-05,0.0,1.2655407953540768e-15,10.333924820080334,1.0
74,170.635,0.6152304609218436,-0.0014510253832969405,0.00039512717298677605,-0.7076546426608882,-0.7065568892091105,0.003923318742486586,-0.0011054551010076753,-0.0011371124131850866,0.0,1.2545439776131457e-15,10.244128988755028,1.0
75,170.715,0.6613226452905812,-0.001554508366470624,0.00031479615284790306,-0.7076480924822265,-0.7065632514829863,0.003784469494596123,-0.0005768299903720437,-0.0014115220829844545,0.0,1.2489685524331674e-15,10.198602187199999,1.0
76,170.835,0.7022132796780685,-0.0017034611524048718,0.0001923533797463696,-0.7076379608440629,-0.7065731021532199,0.0037656240705400694,0.00022787037678067765,-0.0017320899814367487,0.0,1.2408980457710862e-15,10.132701499199996,1.0
77,170.915,0.6740442655935613,-0.0017857357400104298,0.00011517336026103462,-0.7076990772260353,-0.706511655199007,0.0039237496890127,0.0005397885676939341,-0.0019400092568248302,0.0,1.2362575044403905e-15,10.094808603600002,1.0
78,171.035,0.6438631790744467,-0.0018418125094869077,1.6995110335882204e-05,-0.7080591499919522,-0.7061505200454112,0.004835936453193395,0.00011967773200014149,-0.0022289808448403975,0.0,1.23222225110935e-15,10.061858259600001,1.0
79,171.126,0.584,-0.0018843373930065726,-5.745672919069559e-05,-0.7083322051727724,-0.7058766592206012,0.005527678082697125,-0.0001989063184010011,-0.002448117632418881,0.0,1.2291621839999772e-15,10.0368709154,1.0
80,171.235,0.6398390342052314,-0.0018916426946354252,-0.0001834189931491155,-0.7083683197064614,-0.7058404134171546,0.004698201420297544,0.00025575782974308816,-0.001256790464795768,0.0,1.2263895454360686e-15,10.014230603386451,1.0
81,171.315,0.6881287726358148,-0.0018910871230003706,-0.0002808569744989611,-0.7083553668587954,-0.7058533829910499,0.003864546532768717,0.0007028707426710753,-0.00018525584804948876,0.0,1.2244756518053347e-15,9.998602475896416,1.0
82,171.435,0.718,-0.001859933724893843,-0.0003938056023560645,-0.7083403737551494,-0.7058684680730258,0.002807934048585612,0.0012668666001409198,0.0004211708584335051,0.0,1.221797846670829e-15,9.9767365376,1.0
83,171.515,0.768,-0.0018002170983242674,-0.0004264468145982115,-0.7083360768447572,-0.7058729122247417,0.002352561789564897,0.0015058360751717711,-0.00046022178069667346,0.0,1.2202606073066233e-15,9.964184025600003,1.0
84,171.635,0.702,-0.0017106421584698825,-0.00047540863296144365,-0.7083296314791689,-0.7058795784523154,0.0016695034010336632,0.0018642902877181332,-0.0017823107393922545,0.0,1.2179547482603143e-15,9.945355257600003,1.0
85,171.715,0.6881287726358148,-0.0016521618024295506,-0.0004960427024946786,-0.7083227876662307,-0.7058865667282208,0.0008188757775351636,0.0016244474244304075,-0.002240269990637888,0.0,1.2170996588639745e-15,9.938372922800001,1.0
86,171.835,0.6295546558704453,-0.0015646763338922336,-0.0005247107585329681,-0.7083120376766209,-0.705897532884002,-0.0005322198467329424,0.0011736413468606674,-0.0028466968853026755,0.0,1.2159467293408201e-15,9.9289585388,1.0
87,171.934,0.6816239316239316,-0.0014947611571822191,-0.0005318734343349537,-0.7083024052792493,-0.7059073460459144,-0.001572154483672491,0.0007324771138383513,-0.00263434272830894,0.0,1.2149970935991224e-15,9.921204174501993,1.0
88,172.035,0.6645299145299145,-0.0014268348999506339,-0.0005143689936657657,-0.7082914291400705,-0.7059185102542638,-0.0025206605200673226,0.00017819438717312072,-0.0013452947599605176,0.0,1.2140305773156016e-15,9.913311970119523,1.0
89,172.115,0.6940133037694013,-0.0013730319239256068,-0.0005005040901654165,-0.7082827351684438,-0.7059273531915702,-0.003271952430083155,-0.0002608414359281247,-0.0003242666662190241,0.0,1.2132650198633078e-15,9.907060719123505,1.0
90,172.235,0.703962703962704,-0.0012724098659447675,-0.0004556090843745037,-0.708279537692796,-0.7059307725073652,-0.002990057887509444,-4.825163632615347e-06,5.027515580875625e-06,0.0,1.2121132386763317e-15,9.897655711999999,1.0
91,172.315,0.6602870813397129,-0.0012009023619701563,-0.0004203240470604832,-0.7082795934827623,-0.7059308642534143,-0.0024890543241054604,0.00036909013055259107,-4.260924295521534e-05,0.0,1.211344618994229e-15,9.891379456000001,1.0
92,172.435,0.6842105263157895,-0.0010865472388899096,-0.0003677932184703986,-0.7082766121976359,-0.7059340716465606,-0.0018437354082997445,0.0007121550465324372,-0.0004629349411066222,0.0,1.2090325862958553e-15,9.872500276305223,1.0
93,172.515,0.6997518610421837,-0.0010008520006786897,-0.00033330163591829565,-0.7082705380474505,-0.7059403029407552,-0.001555104703496636,0.0006504542901214511,-0.00120831282033722,0.0,1.2059457602633139e-15,9.847294428915669,1.0
94,172.632,0.7246753246753247,-0.0008755227147947356,-0.00028285769643582694,-0.7082616546028043,-0.7059494162085146,-0.0011329822977219385,0.0005602169338703517,-0.0022984279687123603,0.0,1.2014312771907204e-15,9.810430877108434,1.0
95,172.715,0.71875,-0.0008497583026396022,-0.00025390340774501346,-0.7082616805856664,-0.7059494340228981,-0.0002396988396744736,0.0004111916058468679,-0.0013364890313882197,0.0,1.1941739308967324e-15,9.751170147410361,1.0
96,172.835,0.7135416666666666,-0.0008279383706563095,-0.00021371092666107249,-0.7082632644257618,-0.70594788436699,0.001196902037497997,0.0001749602572916403,0.0004782922968520533,0.0,1.1826905691123258e-15,9.65740138247012,1.0
97,172.915,0.7235772357723578,-0.0008259317193396585,-0.00018824487236901446,-0.7082628148029245,-0.7059483453448813,0.0018648988451345349,-8.431524325834056e-05,0.0012087871630988107,0.0,1.1747302320092349e-15,9.592400297188771,1.0
98,173.035,0.6966292134831461,-0.0008793516073896804,-0.0001560259898684586,-0.7082553655456144,-0.7059557601799538,0.0015630770594360634,-0.0009312742008933451,0.00014741237585752976,0.0,1.1614182947438973e-15,9.483700080321295,1.0
99,173.115,0.7301136363636364,-0.0009149648660896994,-0.00013454673486808545,-0.7082503993740743,-0.7059607034033354,0.0013618625356370587,-0.0014959135059834149,-0.0005601708156367413,0.0,1.1525436699003376e-15,9.411233269076304,1.0
100,173.235,0.7084548104956269,-0.0009765156856750336,-0.00010767564775820984,-0.7082465866960771,-0.7059644484479163,0.0020861797016114712,-0.0014116387516259887,-0.00014018644089804446,0.0,1.138397807289646e-15,9.295723534999992,1.0
101,173.315,0.7202380952380952,-0.0010192770160544332,-9.08977513430564e-05,-0.7082448175173396,-0.7059661654818549,0.002787065355107121,-0.0011576110571623094,0.00045452413638116655,0.0,1.128790061263361e-15,9.217270335000007,1.0
102,173.435,0.7082066869300911,-0.0010953582032101393,-8.357907806044089e-05,-0.7082413476864065,-0.7059695321502198,0.0031497235717252155,-0.0009750983919948285,0.000744762027403363,0.0,1.1143784422239303e-15,9.099590535000003,1.0
103,173.515,0.7112462006079028,-0.0011614155171731293,-0.00010162688182112836,-0.7082379861899578,-0.705972792827977,0.002506862369366144,-0.0011084441151469628,0.00016517411707914328,0.0,1.1047706961976455e-15,9.021137335000018,1.0
104,173.635,0.7408536585365854,-0.0012605014881176375,-0.00012869858746216597,-0.7082329439452849,-0.7059776838446128,0.0015425705658273078,-0.0013084626998752114,-0.0007042077484073924,0.0,1.090359077158215e-15,8.903457535000014,1.0
105,173.715,0.7719869706840391,-0.0012973556466541456,-0.0001243117656603685,-0.7082339094152819,-0.7059766487796157,0.0008942986834852904,-0.001311533219972992,-0.0008380033039601568,0.0,1.0805499088973204e-15,8.823359597637795,1.0
106,173.835,0.8062283737024222,-0.0013470841718073744,-0.00011346579429437596,-0.7082361803533339,-0.7059742793859625,-7.913793129194174e-05,-0.00129136836291914,-0.0009539333022269327,0.0,1.0657978579120758e-15,8.70289995984251,1.0
107,173.915,0.7706093189964157,-0.001372751502131555,-0.00010933696154154716,-0.7082423176946484,-0.705968074581787,-0.0004694717420394134,-0.0011811356144324338,-0.0006338141525422745,0.0,1.0574720749572593e-15,8.634914782723579,1.0
108,174.035,0.769811320754717,-0.0013696445935579636,-0.00012038615364260444,-0.7082772242746761,-0.7059330566582039,0.00038267234274054116,-0.0004777506836079813,0.0020554733682210764,0.0,1.0533712077509175e-15,8.60142866077236,1.0
109,174.115,0.8,-0.001367573321175569,-0.00012775228170997682,-0.7083004953280279,-0.7059097113758153,0.0009507683992605782,-8.827396391624266e-06,0.0038483317153968554,0.0,1.0506372962800224e-15,8.579104579471544,1.0
110,174.235,0.746268656716418,-0.0013502525828540841,-0.00010614263076442314,-0.7082959702265493,-0.7059142880068349,0.0003790656230411724,-2.3668570967873043e-05,0.00319668290158722,0.0,1.0522691680369999e-15,8.592429823600002,1.0
111,174.315,0.7890625,-0.0013356856359680515,-8.479768802159378e-05,-0.7082845760653902,-0.7059257511240968,-0.0003045718246138926,-0.0001861528489389297,0.00205245436122652,0.0,1.0545750270833083e-15,8.611258591599999,1.0
112,174.434,0.78515625,-0.001312021762258472,-7.426410193517114e-05,-0.7082712870787597,-0.7059391304522782,-0.0010301923751830954,-0.0003157786349766017,0.000696421549655542,0.0,1.0620402457457323e-15,8.672216727999992,1.0
113,174.515,0.803921568627451,-0.0012932317595977447,-9.561680530123084e-05,-0.7082671616424758,-0.7059433009395456,-0.001132512731477594,-0.0002533530720975397,0.0002385546155274994,0.0,1.0725463160254753e-15,8.75800530219998,1.0
114,174.635,0.8313725490196079,-0.0012653947186188846,-0.0001272504399176211,-0.7082610498850181,-0.7059494794392012,-0.0012840984445065076,-0.00016087075672113532,-0.00043976676836601607,0.0,1.0881108645880603e-15,8.885099486199984,1.0
115,174.715,0.8571428571428571,-0.0012489339271001636,-0.00010760022106072472,-0.7082703866822715,-0.70594014314785,-0.0009571899175644018,-0.00019429247232619556,1.2703037355080594e-05,0.0,1.0974640053446521e-15,8.961473676399997,1.0
116,174.835,0.8697478991596639,-0.0012246415100095082,-7.037868621036266e-05,-0.70828694191449,-0.7059235803103989,-0.00038545337319372897,-0.0002625029893824844,0.0008634251379408119,0.0,1.1112991596225055e-15,9.074446284400002,1.0
117,174.915,0.8388429752066116,-0.0012072037591841687,-4.8226866255255484e-05,-0.7082946828939307,-0.7059158462725381,-0.00011812512093455685,-0.0002499142307594367,0.001172753727587467,0.0,1.1201030575645914e-15,9.146335566666657,1.0
118,175.035,0.8388429752066116,-0.0011758095929607093,-2.6219826329446428e-05,-0.7082924047430728,-0.7059181854566488,-0.00019684254220919795,1.3660604530572168e-05,0.0005502216715415453,0.0,1.1315408504530293e-15,9.239732233333335,1.0
119,175.115,0.8512396694214877,-0.001154880148811734,-1.1548466378905322e-05,-0.7082908859758342,-0.7059197449127226,-0.0002493208230589649,0.00018937716139059892,0.00013520030084421502,0.0,1.1391660457119888e-15,9.301996677777794,1.0
120,175.235,0.8287937743190662,-0.0011049661070242607,-3.627839721801769e-06,-0.708280693547807,-0.7059300494372874,-0.0006733952912065225,0.0003080866472556336,0.00010279973187621178,0.0,1.1485597350520898e-15,9.378701972289168,1.0
121,175.315,0.8645418326693227,-0.0010673895837166368,-1.6184242824554668e-06,-0.7082720608235622,-0.7059387687499493,-0.0010363068726160396,0.00035358715968872013,0.00021823363046228445,0.0,1.1543475338631043e-15,9.425962936144575,1.0
122,175.435,0.8764940239043825,-0.0010211671365572877,-1.6582800981148563e-06,-0.7082562469358888,-0.7059547045931056,-0.0014798017569357406,0.0002640455995824984,-0.00031789053634945636,0.0,1.162257525571493e-15,9.490552920080319,1.0
123,175.515,0.84,-0.001003875288853864,-5.756822608127665e-06,-0.7082418846090317,-0.7059691376540944,-0.0016409683627558506,-6.038545496150514e-06,-0.0016210066671451654,0.0,1.1665019113662372e-15,9.525210960240955,1.0
124,175.635,0.8830645161290323,-0.0009779375172987222,-1.1904636373148337e-05,-0.7082203411187459,-0.7059907872455776,-0.0018827182714860724,-0.00041116476311421987,-0.0035756808633391913,0.0,1.1728684900583553e-15,9.577198020481921,1.0
125,175.715,0.8842975206611571,-0.0009589298688522374,-1.0311556263211993e-06,-0.7082227530377202,-0.7059883932421757,-0.0016958823106251715,-0.00028624701930676143,-0.0034072435488924475,0.0,1.1757335083477971e-15,9.6005926702,1.0
126,175.835,0.941908713692946,-0.0009300921523792559,1.8125858648391768e-05,-0.7082295603854594,-0.7059816027248297,-0.0013494588672183382,-2.3764410638245316e-05,-0.002874785161577154,0.0,1.1797687616788377e-15,9.6335430142,1.0
127,175.915,0.9377593360995851,-0.0009045563213087933,2.6328061464015466e-05,-0.7082337687917425,-0.7059774135119572,-0.0011163085259031907,1.3498213724291518e-05,-0.0026786545729264198,0.0,1.1823580492329214e-15,9.654686151599998,1.0
128,176.035,0.9111969111969112,-0.0008396575376635235,1.937570411481408e-05,-0.7082386914220937,-0.7059725532728486,-0.0007573057736736057,-0.0005110236428444821,-0.003053862868808182,0.0,1.1858168378023848e-15,9.682929303599998,1.0
129,176.115,0.9282700421940928,-0.0007963916819000051,1.4740799215345938e-05,-0.7082419731756613,-0.7059693131134429,-0.0005179706055205206,-0.0008607048805570392,-0.0033040017327293867,0.0,1.1881226968486941e-15,9.7017580716,1.0
130,176.235,0.9113924050632911,-0.0007736698055670052,1.5942482816002172e-05,-0.7082479744255865,-0.7059633189618861,-0.0002013554672972021,-0.0009767831677934557,-0.001010816573050164,0.0,1.1902648031559572e-15,9.719249697011954,1.0
131,176.315,0.9186991869918699,-0.0007674825496384541,1.847596556476009e-05,-0.7082522044161421,-0.705959081956372,7.158643667832089e-07,-0.0009673931357632606,0.0010848849635212163,0.0,1.1914131393343976e-15,9.728626573505975,1.0
132,176.433,0.9676113360323887,-0.000744731779663165,2.1359053121004848e-05,-0.7082506789477775,-0.7059606354423914,-0.00019998703211300003,-0.0008237720219359151,0.0028893254953531347,0.0,1.1931113163998847e-15,9.742493241566264,1.0
133,176.515,0.9508196721311475,-0.0007089894598780899,2.2113463495053752e-05,-0.7082382592732654,-0.7059731307135951,-0.0010691314191605672,-0.0005341154770051181,0.002260814906176659,0.0,1.1942978151561429e-15,9.752181739156624,1.0
134,176.635,0.9098360655737705,-0.0006566836260462665,2.321747867658886e-05,-0.7082200841398333,-0.7059914164763323,-0.002341050034352276,-0.00011022785027707354,0.0013410433122597596,0.0,1.1960341547994478e-15,9.766360028313251,1.0
135,176.715,0.8930041152263375,-0.0005488296608005497,-9.885448672910174e-05,-0.7082213468137609,-0.705990189765147,-0.0019700101190246776,0.005537395455175849,0.00022721847053620175,0.0,1.1961643802726959e-15,9.7674234,1.0
136,176.833,0.9491525423728814,-0.00037609922038390114,-0.0003018722677463961,-0.7082257108342447,-0.705985871724019,-0.0011948102633469269,0.01487074960372355,-0.0015092794550581748,0.0,1.1961643802726959e-15,9.7674234,1.0
137,176.915,0.9152542372881356,0.0003264828380400815,-0.0009260688063283398,-0.7082258529636821,-0.7059802000917026,-0.00146801426653295,0.028265128081490114,-0.0022201163699095096,0.0,1.196961861168158e-15,9.773935325691696,1.0
138,177.035,0.8702928870292888,0.003830992573084232,-0.003893192627667512,-0.7082137738365205,-0.7059605462367619,-0.005319116618705093,0.07723375071178742,-0.001152435134615024,0.0,1.2015188948565157e-15,9.811146329644268,1.0
139,177.115,0.8046875,0.006167332396447275,-0.005871275175227195,-0.7082057210850794,-0.7059474436668013,-0.007886518186820159,0.1098794991319895,-0.0004406476444186163,0.0,1.2045569173154213e-15,9.835953665612653,1.0
140,177.235,0.8104838709677419,0.012170449758039608,-0.011068360509815054,-0.7081441941325605,-0.70581806007736,-0.009271521481775532,0.13434313478008594,0.00042211463780060824,0.0,1.2117382266540165e-15,9.894593506451622,1.0
141,177.315,0.8024193548387096,0.01677825106008096,-0.015073680796690107,-0.7080911888126127,-0.7057052032033082,-0.009597014816057271,0.14471162230737664,0.0009476121706557011,0.0,1.2171619542494995e-15,9.938881603225802,1.0
142,177.435,0.8232931726907631,0.02312606914703004,-0.02056465477355509,-0.7079826071631131,-0.7055319905439602,-0.009219890609383722,0.14247154831886544,0.0013449827022850593,0.0,1.224699385970767e-15,10.000429403999997,1.0
143,177.515,0.7983870967741935,0.02660610271684222,-0.0235359621535321,-0.7078714545040096,-0.7054112789733678,-0.007814655527472916,0.11725442528725423,0.0010887286998332167,0.0,1.2289267942223323e-15,10.034948811999989,1.0
144,177.635,0.8122448979591836,0.031826153071561725,-0.027992923223498674,-0.7077047255153542,-0.705230211617479,-0.005706802904606205,0.07942874073982847,0.0007043476961553619,0.0,1.2352679065996818e-15,10.086727923999993,1.0
145,177.715,0.7634854771784232,0.03362049431960672,-0.029552644530611846,-0.7076339809588844,-0.7051538877456295,-0.003936321163861702,0.06583576085439245,0.00045523693413098174,-0.0027349223107569634,1.236801126787264e-15,10.099247616932272,1.0
146,177.835,0.7551867219917012,0.035950786408437095,-0.03158974376138113,-0.7075365230033156,-0.7050489135875858,-0.0012023314115665708,0.04793717884328503,8.31014854717916e-05,-0.007423360557769535,1.2385236310549253e-15,10.11331293167331,1.0
147,177.915,0.7396694214876033,0.037367019019365115,-0.032821956730648964,-0.7074769441634482,-0.7049834555982021,3.8689638487951944e-05,0.037492501027881715,-0.00021981371112637222,-0.009061344599999787,1.239764331739985e-15,10.123444021600001,1.0
148,178.035,0.7644628099173554,0.038830181961089213,-0.034064193743030935,-0.7074135480847965,-0.7049070590147601,-0.0009008287237957902,0.028989983387290724,-0.0009382116702618712,-0.004354152599999607,1.2420701907862938e-15,10.142272789600002,1.0
149,178.115,0.7634854771784232,0.03980562392223872,-0.03489235175128568,-0.7073712840323619,-0.7048561279591322,-0.0015271742986516926,0.023321638293562725,-0.0014171436430189272,-0.0012160245999991177,1.2436074301505e-15,10.154825301600003,1.0
150,178.235,0.7551867219917012,0.039998114601882157,-0.035071379647714784,-0.7073643501589776,-0.7048444700482408,-0.00030800246121144266,0.005173236520650892,-0.0010776154751407695,0.0,1.2442031104041293e-15,10.1596894,1.0
151,178.315,0.7396694214876033,0.03983137924880209,-0.03494384406859635,-0.7073728386506035,-0.7048517310578268,0.0010060476490770633,-0.009165566220100702,-0.000605602614627431,0.0,1.2442031104041293e-15,10.1596894,1.0
152,178.435,0.7361702127659574,0.039295216916405466,-0.034536953953170656,-0.7073949260432764,-0.704878978317766,0.0028197927772997816,-0.021708934158087133,-0.00012720259954221409,-0.0015690639999996878,1.2445874202451808e-15,10.162827528,1.0
153,178.515,0.7253218884120172,0.038556362957772476,-0.033978244880556216,-0.70742212384537,-0.7049189508184724,0.003819182813167274,-0.01811806455254662,-0.00011442829039879303,-0.004707191999999064,1.2453560399272835e-15,10.169103783999999,1.0
154,178.635,0.7327586206896551,0.03744808201982273,-0.03314018127163436,-0.7074629205485102,-0.704978909569532,0.005318267866968867,-0.01273176014423457,-9.52668266836569e-05,-0.009414383999999242,1.246508969450438e-15,10.178518168,1.0
155,178.715,0.7672413793103449,0.037351448392404,-0.033050532926959045,-0.7112153497677476,-0.7011496994438277,0.0053201568594937075,-0.007690721158071828,0.041007256943526436,-0.00980665,0.0027349223107582116,10.195712233864542,1.0
156,178.835,0.7222222222222222,0.03734411659367931,-0.033016573423076144,-0.7176422574717066,-0.694576773692468,0.0051092401247070564,0.00018158790273361744,0.11146598891193683,-0.00980665,0.0074233605577707865,10.223842863346617,1.0
157,178.915,0.7316017316017316,0.037282709574010114,-0.03312994774717256,-0.7214678778378419,-0.690643350811529,0.005394902704919513,0.0042248279338770135,0.14011017750783958,-0.00980665,0.009806650000001254,10.243380690160643,1.0
158,179.035,0.7402597402597403,0.036918414698320884,-0.03395502399077377,-0.7249959343638878,-0.6869032310810099,0.007876241149522867,0.004486825356417037,0.09481122916242804,-0.00980665,0.00980665000000126,10.276463364859437,1.0
159,179.115,0.7186147186147186,0.03667555144786137,-0.0345050748198413,-0.7273479720479186,-0.6844098179273302,0.009530466779258631,0.004661490304777074,0.06461193026548344,-0.00980665,0.009806650000001261,10.298518481325301,1.0
160,179.235,0.6779661016949152,0.03638945614166539,-0.03499651947175692,-0.7292201695577177,-0.6824111694689694,0.006994448066039329,0.002402560554437067,0.04174483430931615,-0.013322978685259428,0.009806650000001265,10.324370793426297,1.0
161,179.315,0.6822033898305084,0.036216103619644384,-0.035250008885992695,-0.7301003325606399,-0.681465730779431,0.0041888006665998685,0.0003364013491264344,0.03148495975837244,-0.01644860418326707,0.009806650000001266,10.339998920916337,1.0
162,179.43,0.6610169491525424,0.03598472147092137,-0.0355070129373818,-0.7311608354855572,-0.6803291704324252,0.0010987066773202772,-0.0020414369230358264,0.01964635464800337,-0.0196133,0.009806650000001268,10.362517703212855,1.0
163,179.515,0.7201834862385321,0.03584506467047964,-0.035507877986070205,-0.7315841801967029,-0.679880911247806,0.0004752666839533938,-0.00275606711499802,0.016020149329161563,-0.0196133,0.00980665000000127,10.379255961244978,1.0
164,179.63,0.6697247706422018,0.03565611723458782,-0.0355090483460604,-0.7321569406882533,-0.6792744429392034,-0.00036821095413148313,-0.0037229197276530614,0.011114106838962252,-0.0196133,0.009806650000001273,10.401901839759034,1.0
165,179.715,0.6710526315789473,0.035527409395219485,-0.035486962285489615,-0.7324132232149569,-0.6790059963405745,0.0002703455416484938,-0.0033335859980434673,0.008586556063965148,-0.0196133,0.012552512000001006,10.410347373999999,1.0
166,179.835,0.6711711711711712,0.03534901650097382,-0.03544883877196674,-0.732724494020388,-0.6786814099920535,0.0015536175156011934,-0.002449966100975887,0.0053506151679903885,-0.0196133,0.017259704000001187,10.419761758,1.0
167,179.915,0.698019801980198,0.035159192273784584,-0.03536282909922902,-0.7329093412122308,-0.678496142366071,0.002087130127474764,-0.0039452964346838254,0.0035685116983951637,-0.020397831999999286,0.020397832000000563,10.422115354000002,1.0
168,180.035,0.6417910447761194,0.03455542559338556,-0.03496114160337096,-0.733084611946995,-0.6783582956557389,0.0014383898768574738,-0.015568138128145208,0.0025837135687471575,-0.025105023999999466,0.02510502400000074,10.407993778000002,1.0
169,180.115,0.5870646766169154,0.03415291447311949,-0.03469334993946555,-0.7332014591035045,-0.6782663978488507,0.0010058963764458956,-0.02331669925712038,0.0019271814823150755,-0.028243151999999955,0.02824315200000123,10.398579394,1.0
170,180.235,0.581151832460733,0.03249716717993292,-0.03331419201535327,-0.7333572982644924,-0.6782434788771422,0.0017947798408568267,-0.03823327258229301,0.001078957695281115,-0.02941995,0.02941995000000127,10.349153878,1.0
171,180.315,0.5087719298245614,0.031159562181633856,-0.032177537748555515,-0.7334568729109783,-0.6782537390601419,0.002640174087136852,-0.048909595161674736,0.0005438250245061668,-0.02941995,0.029419950000001263,10.308358214000007,1.0
172,180.432,0.41935483870967744,0.028781692891393762,-0.030120067807869407,-0.733602441499931,-0.6782925075528087,0.003183775427751425,-0.06321909861266395,-0.000365065742400242,-0.030871334199999125,0.029419950000001256,10.241437634400016,1.0
173,180.515,0.3305785123966942,0.026448127047309547,-0.028054454269146573,-0.7337056171005998,-0.6783564586258459,0.002506780531257586,-0.07136920705437426,-0.0012034960661546621,-0.03412714199999906,0.02941995000000125,10.182833094000017,1.0
174,180.635,0.4793388429752066,0.023074296911283987,-0.02506802505653507,-0.7338547866437352,-0.6784489180085505,0.0015279927290977624,-0.08315249636769105,-0.00241568448604064,-0.03883433399999924,0.029419950000001235,10.098103638000014,1.0
175,180.715,0.432,0.020489907948774526,-0.022769590373707647,-0.7339219389938814,-0.6785244480753132,0.001681970125947712,-0.08610922295467648,-0.002252899732425986,-0.0392266,0.03213325237154262,10.036776802569173,1.0
176,180.835,0.41284403669724773,0.0165415026039052,-0.0192560493763769,-0.7340157473736838,-0.67864071970652,0.002085758206570777,-0.08949457005903207,-0.0018006703805310501,-0.0392266,0.036784627865614185,9.943749292687741,1.0
177,180.915,0.3804347826086957,0.013883321812628692,-0.016886164193605356,-0.734072552470014,-0.6787129207354975,0.0021814476486073345,-0.09144779451583555,-0.0014320612651284926,-0.0392266,0.03922660000000121,9.884110624089072,1.0
178,181.035,0.358695652173913,0.009752018387541115,-0.013178332481792662,-0.7341258868013121,-0.6787916860714547,0.0013605114112623723,-0.09268956317713378,-0.0005060233428380964,-0.0392266,0.0392266000000012,9.80788079412956,1.0
179,181.115,0.3448275862068966,0.006997816104149069,-0.01070644467391724,-0.7341614430221775,-0.6788441962954261,0.0008132205863656656,-0.0935174089513327,0.00011133527202224084,-0.0392266,0.039226600000001194,9.757060907489878,1.0
180,181.235,0.4166666666666667,0.002941912234984946,-0.007042289745145339,-0.7341386165000986,-0.6789349490972979,0.0008899742644280302,-0.09315678924322125,-0.0009781687520444779,-0.0392266,0.035696206000001056,9.68504754,1.0
181,181.315,0.40476190476190477,0.00025473177908138123,-0.004609225744418157,-0.7341064741846289,-0.6789981148465267,0.001140630031004509,-0.09256028980016717,-0.0021524029783902606,-0.0392266,0.03255807800000167,9.637975620000008,1.0
182,181.432,0.5294117647058824,-0.003668933563943462,-0.0010410107649377037,-0.7340424258091593,-0.6790808999129089,0.0010436352799681717,-0.09220048782241284,-0.0030408261466282924,-0.0392266,0.030865551792829123,9.575002080278892,1.0
183,181.515,0.7368421052631579,-0.0064426699323501275,0.0015054089982110734,-0.7339708527556458,-0.67912491081355,0.0002637706053225516,-0.09273145781214011,-0.0023996824216825697,-0.0392266,0.03410838824701263,9.539330879282874,1.0
184,181.635,0.375,-0.010452891187878066,0.00518697974011313,-0.7338673736421323,-0.6791885410313444,-0.0008637445869362401,-0.09349912526716751,-0.0014727276386284603,-0.0392266,0.03879682649402519,9.487758058565737,1.0
185,181.715,0.375,-0.013194730089529844,0.007720837485023734,-0.7337607677633737,-0.6792161387229358,-6.0636625431927365e-05,-0.09347881849219157,-0.0015351883697937,-0.0392266,0.03922660000000116,9.447272155487799,1.0
186,181.835,0.3333333333333333,-0.017323834935723557,0.01154062953181088,-0.7335918629053682,-0.6792539907605482,0.0015158216716019348,-0.09332112059360595,-0.0017915911285388585,-0.0392266,0.03922660000000115,9.385083643292676,1.0
187,182.021,1.0,-0.023612279813615925,0.01731882675299781,-0.7332337052121145,-0.6793214809533875,0.002601416173240075,-0.09401490127027261,-0.0025006216783222896,-0.0392266,0.03922660000000114,9.315542270750992,1.0
188,182.219,1.0,-0.030307439850637816,0.023531038230715697,-0.732759402507417,-0.6793836348793144,0.0015013802275285998,-0.09582601805250945,-0.0035195348782471603,-0.03633539641434299,0.03633539641434412,9.262634882071714,1.0
189,182.315,0.0,-0.03359707158270934,0.02664721247839977,-0.732490670981795,-0.6794025267214046,-0.00034565898307802566,-0.0972170109352268,-0.004109072397867472,-0.032584645816732934,0.03258464581673406,9.243881129083665,1.0
190,182.715,1.0,-0.048230736518831564,0.040460154531662525,-0.7308940513175817,-0.6795512771216764,-0.0018580745905637153,-0.10443654716014851,-0.005327551979571502,-0.02667408800000027,0.014121576000001662,9.215505138000001,1.0
191,182.915,1.0,-0.056244782527359656,0.04804883376989932,-0.7297496865300225,-0.6796944452996275,-0.003289608295918321,-0.10453389845197392,-0.007147727918530187,-0.018834994444445093,0.0007783055555560351,9.220118933333325,1.0
192,183.225,1.0,-0.06515714057579099,0.05673620790168684,-0.7279973814267446,-0.6801038553144745,-0.002217007478340042,-0.07102454660168604,-0.006713658593684706,-0.00980665,0.009806650000001152,9.404695502409641,1.0
193,183.315,0.6666666666666666,-0.0672355525416923,0.058765066534896264,-0.7276346271896432,-0.6801172713455826,-0.0025863548634147823,-0.06910127616790383,-0.005126625849270499,-0.00980665,0.009806650000001159,9.46140865903615,1.0
194,183.43,0.5555555555555556,-0.0697985255796357,0.06130513191623007,-0.7272128573788291,-0.6800918723270333,-0.0027562582259996757,-0.061772204130884655,-0.0033605287987736763,-0.00980665,0.009806650000001168,9.532456066000012,1.0
195,183.515,0.5,-0.0715295312512156,0.06309036344484271,-0.7269746298852718,-0.6799981887106668,-0.0023499850160442304,-0.047776882514357605,-0.002516109847463664,-0.00980665,0.009806650000001174,9.582469981000001,1.0
196,184.027,1.0,-0.062393559784871204,0.05599670388756403,-0.7274092129806822,-0.6810063092770228,-0.0034277336812207695,0.13283452583125271,-0.0027005197752657723,0.0,1.1999264494998563e-15,9.798143026506024,1.0
197,184.115,0.0,-0.057727592489574125,0.05189518868168167,-0.7277493247345858,-0.6814113375454589,-0.004125575773440565,0.1519788531175148,-0.0044844241320285486,0.0,1.2024730809767041e-15,9.818937850602415,1.0
198,184.224,1.0,-0.05123456263224938,0.04610809688594543,-0.7281583266946359,-0.6818655894202724,-0.004799763035029189,0.16132040631771097,-0.0033854358228854377,0.0,1.2033701897924109e-15,9.8262633,1.0
199,184.315,0.0,-0.04557700299392793,0.041042150396365766,-0.728495714870382,-0.6822290894593532,-0.0052995123136789215,0.16435085660219229,-0.0013701251337768106,0.0,1.2033701897924109e-15,9.8262633,1.0
200,184.515,1.0,-0.033328982610119115,0.030058127205480116,-0.7290816894566712,-0.6828777057421609,-0.004685961057431998,0.16264970922470093,0.0003297158668283176,0.0,1.2022268680152827e-15,9.8169273692,1.0
201,184.628,0.0,-0.026480450867838068,0.02390981228694979,-0.7293529483631455,-0.6831863773995998,-0.003680941876024014,0.1584729052782059,0.00024044873891396423,0.0,1.2011411927143124e-15,9.8080621576,1.0
202,184.715,0.5,-0.021641640487555812,0.01952895568763913,-0.7294688077577655,-0.6833434537610501,-0.003040180616080644,0.1516016511917099,-0.0002867701584474689,0.0,1.2006367860479322e-15,9.803943364599998,1.0
203,184.823,1.0,-0.015775371900412,0.014204901598071952,-0.7295825208189115,-0.6835123523391029,-0.002287828028201911,0.1418880333900433,-0.0010897256704049051,0.0,1.2001179677625128e-15,9.799706891799998,1.0
204,184.915,1.0,-0.01096439481433963,0.009836140434432546,-0.7296632335607987,-0.6836363212901286,-0.0018828820856473876,0.13318909924343705,-0.0015855024093799181,0.0,1.1997672850325534e-15,9.79684335,1.0
205,185.115,1.0,-0.0020610889240435144,0.0017298775558008406,-0.729703771831768,-0.6837395425876847,-0.0029732892122788547,0.11073385671790172,-0.0010911686312540514,0.0,1.1997672850325534e-15,9.79684335,1.0
206,185.226,0.375,0.001928272757393611,-0.0019296470102422966,-0.7296991968693741,-0.6837437187239142,-0.002699162121431992,0.09634205426676559,-0.00047533736652109813,0.0,1.1997672850325534e-15,9.79684335,1.0
207,185.315,0.6428571428571429,0.004817767868408077,-0.004591222997409054,-0.7296867356461885,-0.6837298175194486,-0.002193786063601758,0.08417613319603662,0.00012934199500699807,0.0,1.1997672850325534e-15,9.79684335,1.0
208,185.715,1.0,0.012798824139581968,-0.012109500160308219,-0.7295299613819262,-0.6837205593889765,0.0015371435527471965,0.032349088082779816,3.767447619343442e-05,0.0,1.2009682532858392e-15,9.80665,1.0
209,185.915,1.0,0.014231909161904664,-0.013761352634535982,-0.729504002858443,-0.6836899772811772,0.0014777479048801337,0.009037705908817171,-0.0014679410492993376,0.0,1.2010598934336802e-15,9.807398298594377,1.0
210,186.228,1.0,0.01342537065594689,-0.013275154111338,-0.729483145427991,-0.6837371627819342,0.0011371574936201642,-0.014473560385405915,0.001512584019452338,0.0,1.202169221539125e-15,9.81645665,1.0
211,186.43,1.0,0.011722008814022657,-0.011852708696216643,-0.72950236770805,-0.6837736693358775,0.0028079515258367677,-0.02652995050367379,0.0012157293385826084,0.0,1.202169221539125e-15,9.81645665,1.0
212,186.624,1.0,0.009348384753857391,-0.009818822660487855,-0.7295598160403054,-0.6837816211280364,0.0031274793113374912,-0.03351547203898911,0.0011825542148601832,0.0,1.202169221539125e-15,9.81645665,1.0
213,186.715,0.9,0.008090392308360513,-0.008753610985351793,-0.7295718050266956,-0.6837971411976544,0.0032395716160535945,-0.03545865750312825,0.00041544045694159296,0.0,1.201842558174231e-15,9.813789241199999,1.0
214,186.835,0.5714285714285714,0.006367009824650029,-0.007299350650409857,-0.7295809428531159,-0.6838228659000763,0.0033705306947231476,-0.037426313519478116,-0.0009313488807531024,0.0,1.2012660934126539e-15,9.809082049199999,1.0
215,187.023,1.0,0.0036110682364141277,-0.004966127458100753,-0.7296071703828649,-0.6838346541507401,0.0021211116740210015,-0.03770052457609804,-0.001297049922868586,0.0,1.201575972160996e-15,9.811612401204819,1.0
216,187.222,1.0,0.0008216316370955176,-0.0025660822063509926,-0.7296324767683098,-0.6838313704552464,0.0004733344764944931,-0.035480626714062956,-0.001282525201981216,0.0,1.2018055817492854e-15,9.81348730577689,1.0
217,187.315,0.0,-0.0003632943475620966,-0.0015187882546245544,-0.7296377534429822,-0.6838291474714204,3.0293413001887385e-05,-0.033651019235056076,-0.0016591200332317143,0.0,1.2013606014801397e-15,9.809853766135458,1.0
218,187.515,1.0,-0.0026450457390357063,0.0004910395123383695,-0.7296539301729286,-0.683809107345019,0.0004835342686813892,-0.02882641474585464,-0.0011000120713110123,0.0,1.2009682532858392e-15,9.80665,1.0
219,187.626,0.0,-0.003808643634227134,0.0015129989154499248,-0.7296647707133302,-0.6837920998157628,0.0012773528501549775,-0.025805519459895815,-0.00026171813610493546,0.0,1.2009682532858392e-15,9.80665,1.0
220,188.025,1.0,-0.010209747521114254,0.008173040166783281,-0.729568519248847,-0.6837590871639443,-0.006203402882913451,-0.08800772608942936,-0.0014039094659901042,0.0,1.2015856184923476e-15,9.811691169477912,1.0
221,188.115,0.0,-0.01301154536963807,0.011175156555592753,-0.7295209159533378,-0.6837331184973595,-0.007819059658347158,-0.12238661294063291,-0.002003466957772514,0.0,1.2020197034031738e-15,9.815235741767069,1.0
222,188.43,1.0,-0.027699750830840024,0.026879326093230453,-0.7290490664848163,-0.683361107308678,-0.00522881000861495,-0.12444255945085887,0.0007095019984986777,0.0,1.2048978214105907e-15,9.838737358800001,1.0
223,188.625,1.0,-0.03381785198200916,0.033324957581614315,-0.72876016699113,-0.6831137625508383,-0.0022864975742993717,-0.0673939878195485,-0.002888953248039127,0.0,1.2067713318857164e-15,9.854035732800002,1.0
224,188.715,0.5,-0.03549057807922468,0.035192790952504244,-0.7286628717009888,-0.6830416853628934,-0.0031039169377304818,-0.05443911626934852,-0.002954151449851108,0.0,1.2079635345061736e-15,9.863770805976097,1.0
225,188.822,0.0,-0.037062785937398424,0.037012858535501084,-0.728560240034955,-0.6829712203420384,-0.004862878740620658,-0.0438768528401839,-0.002454309869906336,0.0,1.209499434144838e-15,9.876312378286855,1.0
226,189.022,1.0,-0.039393406623286366,0.03989979039506026,-0.7283753584333998,-0.6828771621064168,-0.005319261412117982,-0.03280763572775844,-0.0036456816756696327,0.0,1.2111647092402071e-15,9.889910381372548,1.0
227,189.115,0.8,-0.040307489362315374,0.0410985109590285,-0.7282913284560922,-0.6828439299582144,-0.004741519758952465,-0.030080309218050754,-0.004792727347390587,0.0,1.2116027094266998e-15,9.893486924313725,1.0
228,189.315,1.0,-0.0406520827052008,0.041868422901197085,-0.7282393651246484,-0.6828336743818428,-0.0005904870777750128,0.0024370891023062294,-0.0012570516664855988,0.0,1.2125759790971897e-15,9.901434274285714,1.0
229,189.423,0.6666666666666666,-0.040346725623651235,0.041763876539389115,-0.728243360044701,-0.6828530033051458,0.001287295839516408,0.018699779510498227,0.00047430001478630855,0.0,1.2129779358186976e-15,9.9047165,1.0
230,190.035,1.0,-0.03812026199747192,0.03734780644789368,-0.7830579843611355,-0.6173645898464034,0.03091450839163723,0.0009692500242964466,0.7793244624137885,0.0,-0.0053740441999988045,9.910090544200001,1.0
231,190.115,0.0,-0.03793030660207598,0.03748152555312561,-0.804386004268755,-0.5906005964846351,0.008870988216713227,0.002293244049884703,0.893976714611072,0.0,-0.008512172199999295,9.9132286722,1.0
232,190.232,0.7,-0.035183436538434906,0.039647585602158725,-0.8349974735905323,-0.5446017542287815,-0.013004281652160473,0.0070098576880994225,0.9665112595558176,0.003295034400000125,-0.009806649999998786,9.917818184400002,1.0
233,190.315,0.48,-0.032546691092811914,0.04173335674744876,-0.8565514482586358,-0.5100592341750597,-0.025634428998921308,0.011130675384775007,0.991451268434525,0.006550842200000063,-0.009806649999998786,9.9210739922,1.0
234,190.435,0.2608695652173913,-0.02844974560070812,0.044737307843627415,-0.8861095459086514,-0.45811570623598413,-0.03663911639153931,0.01550934240221994,1.0224184527397167,0.00835526579999976,-0.009806649999998786,9.9228784158,1.0
235,190.515,0.0625,-0.025292556311021057,0.04672256179149397,-0.9034157577614279,-0.4204919054028006,-0.0331246083825831,0.016066854447126445,1.0354501833915695,0.005217137800000384,-0.009806649999998786,9.919740287800002,1.0
236,190.677,0.11515151515151516,-0.01890564725355609,0.05045728380603972,-0.9367549012293005,-0.3431618717632479,-0.02557403471949248,0.01696057343877955,1.0587731767370996,0.0,-0.010948789959838022,9.91566528995984,1.0
237,190.755,0.06896551724137931,-0.015844599483142274,0.051625232476553796,-0.9490400794529111,-0.3034075182859755,-0.020980899558817684,0.01687142540173371,1.0632319287602683,0.0,-0.014020752610440607,9.918737252610443,1.0
238,190.875,0.13026819923371646,-0.01113529522096717,0.05342207658503698,-0.9679403536430814,-0.24224697447478724,-0.013914537773164157,0.016734274575509342,1.0700915472574506,0.0,-0.018746848995983043,9.923463348995984,1.0
239,190.955,0.04326923076923077,-0.008126505993252198,0.053859676709483065,-0.976550919995249,-0.20037454120513887,-0.005792069590214017,0.016200514948106814,1.0729850677854993,0.0,-0.019613299999998786,9.926595878486058,1.0
240,191.075,0.0625,-0.0036877126560479964,0.05408349471891255,-0.9871968153413904,-0.13694074761013592,0.00833269286960054,0.015148207411704495,1.076369737723909,0.0,-0.019613299999998782,9.931284316733068,1.0
241,191.129,0.16101694915254236,-0.0016902556543056321,0.05418421282315584,-0.991987468247155,-0.10839554049237782,0.014688835976518596,0.014674669020323342,1.0778928391961935,0.0,-0.019613299999998782,9.933394113944223,1.0
242,191.275,0.3324324324324324,0.003348092875617316,0.051672963231228115,-0.9959236958085941,-0.029481682384382077,0.03148998845234112,0.01156342154495912,1.079530590509315,-0.005001785341365934,-0.024615085341364716,9.929134664658635,1.0
243,191.355,0.4144927536231884,0.006079141433012017,0.05006875066844383,-0.9973414138967611,0.013901104464182648,0.040664622627467714,0.009708535173032844,1.0802246662507573,-0.008152516265060146,-0.027765816265058932,9.92598393373494,1.0
244,191.475,0.5572755417956656,0.00953954620015012,0.04682476525796501,-0.993808479572875,0.07837393720962624,0.04608419055185946,0.0021280781681319227,1.0793333006095127,-0.00980665,-0.032467434860556615,9.918234830278884,1.0
245,191.555,0.5376712328767124,0.01161811468682272,0.04436140749897305,-0.9894215705265422,0.12113995736341766,0.046702534123602236,-0.004647964559704157,1.078045346347459,-0.00980665,-0.03559306035856501,9.911983579282868,1.0
246,191.665,0.32124352331606215,0.014280906561912882,0.040919348349818495,-0.9821746922104739,0.17973600502561515,0.04699291099607955,-0.013833191063254625,1.076504828453064,-0.011140354399999679,-0.03789289559999911,9.903382795599999,1.0
247,191.755,0.10483870967741936,0.01558567367015164,0.03785720023867376,-0.9708077104767242,0.22675067743789654,0.04472465936839582,-0.0207583037056027,1.07627574634552,-0.018201142399999946,-0.03083210759999884,9.8963220076,1.0
248,191.835,0.15384615384615385,0.016745466655252894,0.03513529080654479,-0.9607037267133899,0.2685414973599294,0.042708435699343385,-0.026913959387690607,1.0760721178054808,-0.024477398400000926,-0.02455585159999786,9.890045751599999,1.0
249,191.955,0.125,0.01790094623045132,0.031141154618732448,-0.941625656744115,0.3299733589904483,0.037212771778723085,-0.03427666928394795,1.0744223336139354,-0.031664845783133215,-0.01736840421686557,9.880613408433733,1.0
250,192.035,0.5714285714285714,0.01824079549281115,0.02854377565731404,-0.9260169791923305,0.3700036620668209,0.03172801699803515,-0.037806677770423125,1.0723319101525117,-0.03481557670682743,-0.014217673293171359,9.874311946586346,1.0
251,192.115,0.42857142857142855,0.018580644755171103,0.02594639669589471,-0.9104083016405404,0.4100339651432078,0.02624326221734527,-0.041336686256899555,1.0702414866910877,-0.037966307630522764,-0.011066942369476028,9.868010484738955,1.0
252,192.234,0.3333333333333333,0.01846154540760176,0.02248687607630242,-0.8816547027227685,0.46667480610378803,0.018977839175610713,-0.041374106571077894,1.067826570510864,-0.035813885799999313,-0.009806649999998793,9.8586644716,1.0
253,192.315,0.46153846153846156,0.018224095255261943,0.020233242836796873,-0.8606969974393057,0.504501545162775,0.014256078124045954,-0.0400943223237989,1.0663567028045653,-0.03263653119999975,-0.009806649999998793,9.8523097624,1.0
254,192.417,0.3870967741935484,0.01786545545492265,0.017519461563471478,-0.833214770962777,0.5512304351285175,0.009032112509011996,-0.03861535057425477,1.055521607398982,-0.0302044820000004,-0.008237585999997991,9.8458766,1.0
255,192.515,0.5192307692307693,0.017285990448200565,0.015401067097430082,-0.8025124289178791,0.5925626903569009,0.006856947544962279,-0.03771675086021416,1.0097209095954918,-0.0340486887999998,-0.0005491723999991871,9.8458766,1.0
256,192.623,0.5588235294117647,0.016647396359159777,0.013066509930771767,-0.7686771948275768,0.6381125226494139,0.0044598269723355975,-0.036726457297801864,0.959246671199799,-0.038285161599999964,0.007923773200001134,9.8458766,1.0
257,192.715,0.5256410256410257,0.015883318249768737,0.011611977186916663,-0.7482041562594322,0.6624286276704432,-0.00046186746284443414,-0.03328343996405535,0.7826781249046033,-0.03655919119999953,0.012474058800001677,9.837874373599998,1.0
258,192.819,0.6153846153846154,0.014931766714034522,0.01018084196210757,-0.7283920068983265,0.6841369760084114,-0.007174457188695478,-0.028354219108820036,0.529786756038673,-0.03247962480000011,0.016553625200001088,9.825635674399999,1.0
259,192.915,0.6842105263157895,0.012369833895977048,0.007862260833890073,-0.6121354928704443,0.5982129495846543,-0.012394813448190696,-0.024140846133232058,0.3251961382627482,-0.02941995,0.0196133000000012,9.81645665,1.0
260,193.017,0.7285714285714285,0.0018963086205225146,0.0008059591460973532,-0.03755021483049292,0.019049652746983115,-0.013448325917124795,-0.021214254572987395,0.24063762187957388,-0.02941995,0.0196133000000012,9.81645665,1.0
261,193.115,0.75,-0.008166490173542618,-0.0059736248284492505,0.5145023072079451,-0.5374013579402451,-0.014460524171590989,-0.018402431309222644,0.15939512574671227,-0.02941995,0.0196133000000012,9.81645665,1.0
262,193.217,0.7205882352941176,-0.010790282582148699,-0.008121008866281443,0.692612681857339,-0.7211666904031213,-0.014339390498806526,-0.016300889323034994,0.11170371792401919,-0.02941995,0.0196133000000012,9.813699760441766,1.0
263,193.315,0.8028169014084507,-0.00986345536262818,-0.008028108130884533,0.6896003391490942,-0.7240605509657319,-0.013707084154867202,-0.014644135462950339,0.08207517377583087,-0.02941995,0.0196133000000012,9.80984011506024,1.0
264,193.422,0.7654320987654321,-0.008882593947212903,-0.007899726111174437,0.6867989237440879,-0.7267488623808105,-0.012943576086327282,-0.013666980710637665,0.053666161440044206,-0.02941995,0.02062912828685418,9.80665,1.0
265,193.515,0.7142857142857143,-0.008114233862658112,-0.007715168619850797,0.6856842760282258,-0.7278092307555671,-0.012081939960826226,-0.015069860779491035,0.03964421663626294,-0.02941995,0.024262667928287955,9.80665,1.0
266,193.628,0.7571428571428571,-0.0071806350502419715,-0.007490921345446779,0.6843299191261566,-0.729097635339949,-0.011035005743819451,-0.016774435486807685,0.022606799831666614,-0.02941995,0.028677613944224106,9.80665,1.0
267,193.715,0.581081081081081,-0.006117549920556307,-0.006866188249533694,0.6838579997277839,-0.7295548183603745,-0.009770479165017412,-0.024235512867571193,0.016167318865656224,-0.02941995,0.0294199500000012,9.803982591199999,1.0
268,193.822,0.726027397260274,-0.004691761800126221,-0.005942482737584148,0.6834737506564909,-0.7299333286909206,-0.008057702798396167,-0.03552474845200897,0.010542293358593587,-0.02941995,0.029419950000001197,9.799785344999998,1.0
269,193.915,0.7222222222222222,-0.0033469062308004276,-0.005021131220557622,0.6832032219265607,-0.7302016424790941,-0.0067710664458572834,-0.04409360626339915,0.005971725272014719,-0.02941995,0.029419950000001197,9.7961372712,1.0
270,194.015,0.7592592592592593,-0.0014276208265628656,-0.003499495762321398,0.6831965815446525,-0.7302183247503101,-0.0062927766107023,-0.04773717412352544,0.002483985280618252,-0.02941995,0.029419950000001197,9.7922146112,1.0
271,194.115,0.7142857142857143,0.000491664577675242,-0.001977860304084741,0.6831899411627443,-0.730235007021526,-0.005814486775547181,-0.051380741983652764,-0.0010037547107792063,-0.02941995,0.029419950000001197,9.7882919512,1.0
272,194.224,0.5217391304347826,0.00266553459132177,-0.00022005291888888478,0.6832878050686578,-0.7301379880015328,-0.0061684284061193344,-0.05264494383335113,-0.002214843454770735,-0.02941995,0.029419950000001197,9.7840162518,1.0
273,194.315,0.6521739130434783,0.004508814854574761,0.0012819009448646116,0.6834059736837137,-0.730017020228063,-0.006767603579908651,-0.052761069446802145,-0.0023271303009241833,-0.02941995,0.029419950000001197,9.7804466312,1.0
274,194.43,0.618421052631579,0.007531149271039817,0.0038464221629776257,0.6835487217627595,-0.7298409151831519,-0.008646216576919587,-0.07357977227867621,-0.002136398754315305,-0.02941995,0.029419950000001197,9.7746410944,1.0
275,194.515,0.5866666666666667,0.011037673838631742,0.006965953695357713,0.683642135397285,-0.7296680789722617,-0.012094375275075233,-0.12693417483567876,-0.0013845013747923363,-0.02941995,0.029419950000001197,9.7679725724,1.0
276,194.635,0.5066666666666667,0.015988061463468782,0.01136999821166024,0.6837740134695564,-0.7294240749098284,-0.01696236402541397,-0.20225803726911518,-0.0003229991919360847,-0.02941995,0.029419950000001194,9.7585581884,1.0
277,194.715,0.5970149253731343,0.021943266667918966,0.01642334311604834,0.6835301390917511,-0.7293136301907239,-0.02000742578506515,-0.19836177575588024,0.0014043051083575324,-0.02941995,0.02675254120000072,9.744279705999999,1.0
278,194.824,0.6716417910447762,0.030695592288129105,0.023817615312380063,0.6831180835304492,-0.7291757062186377,-0.024108170703054262,-0.180042325675484,0.004002919739811271,-0.02941995,0.02247684180000037,9.722901208999996,1.0
279,194.915,0.6666666666666666,0.037378208083024764,0.029305214800590087,0.6826861356443679,-0.7291575459874335,-0.026371965947465652,-0.16110216175008032,0.007296771793736209,-0.028030031102362258,0.018223381102363448,9.712058297244093,1.0
280,195.022,0.6166666666666667,0.04225839798946279,0.03248829976769886,0.6817588970072431,-0.7295986883775615,-0.023503324449590593,-0.12144573601916428,0.0165314392854019,-0.019767735433071594,0.009961085433072784,9.73271403641732,1.0
281,195.115,0.6129032258064516,0.04650005837543313,0.03525490632789675,0.6809529793132933,-0.729982111202626,-0.02101001922246505,-0.08697800150537066,0.02455783252582319,-0.012586487795275488,0.0027798377952766816,9.750667155511811,1.0
282,195.216,0.6935483870967742,0.049950676546571184,0.03719420142862114,0.6795698980359629,-0.7309513084380173,-0.018970649283859994,-0.0684010226189369,0.03523048514410136,-0.01237694133064517,0.002570291330646366,9.765327623991936,1.0
283,195.315,0.6901408450704225,0.05270544311167802,0.038516766227930516,0.6779385103338711,-0.7322014126560019,-0.017334530310284813,-0.06042827840053317,0.046753569866619986,-0.016291692741935232,0.006485042741936427,9.777071878225806,1.0
284,195.427,0.6666666666666666,0.05576281666680771,0.03985210818547174,0.6757172017048304,-0.7339581231428437,-0.017359753790874382,-0.052741199039777024,0.06185225837609855,-0.0196133,0.009806650000001197,9.791377983794465,1.0
285,195.515,0.6567164179104478,0.058025660809310826,0.04052205773006165,0.6730863132191378,-0.7361456019963875,-0.02180201151654849,-0.049842458012193815,0.07857705347917143,-0.0196133,0.0098066500000012,9.805022018577073,1.0
286,195.627,0.6268656716417911,0.0609056442634065,0.04137472078681268,0.6697379096918918,-0.7389296659918074,-0.027455794076498924,-0.046153151249814166,0.09986315633763372,-0.0196133,0.009806650000001204,9.822387153754944,1.0
287,195.715,0.7164179104477612,0.06325759563970328,0.04153855107690852,0.6655300722854492,-0.7424784267730693,-0.02992607095101609,-0.0424702847715808,0.12590938848764263,-0.01461071740890585,0.009806650000001206,9.841271047773283,1.0
288,195.817,0.7164179104477612,0.06602470656868203,0.04149565232964978,0.6599274779633514,-0.7472178938899648,-0.03188232059481194,-0.03784084395479042,0.16038679690496532,-0.006511297975707625,0.00980665000000121,9.865569306072878,1.0
289,195.915,0.6911764705882353,0.06872205439879664,0.041325934351692364,0.6538379278576484,-0.7523301088868702,-0.03389244161576129,-0.0340872187032757,0.1974034592449376,-0.0012602923694772373,0.01043679618473983,9.888253930923693,1.0
290,196.019,0.5882352941176471,0.07179530426370537,0.04044693447819313,0.6435321538732951,-0.7607934674127894,-0.03673586491719805,-0.03387975216989053,0.2578504047839078,-0.009452192771084876,0.014532746385543652,9.908733681927712,1.0
291,196.115,0.6388888888888888,0.07463215029285161,0.03963554997957853,0.634019131733893,-0.768605798359791,-0.039360563349293276,-0.033688244600611934,0.3136475852814137,-0.017013946987952777,0.018313623493977603,9.927638067469882,1.0
292,196.223,0.6428571428571429,0.07850584267868571,0.03755456726595166,0.6202682351804115,-0.7792700253059359,-0.058686544001106636,-0.025132816517723616,0.30802136659621626,-0.0196133,0.01667130500000055,9.948846425000003,1.0
293,196.315,0.7142857142857143,0.08206136859635131,0.03534402893415259,0.6074117930769254,-0.7890572774772189,-0.08128633242845575,-0.014718910427763843,0.277592060565948,-0.0196133,0.013062457800001157,9.966890661,1.0
294,196.417,0.6301369863013698,0.08602447797086998,0.03267167696334525,0.5947374526561032,-0.7986154704636651,-0.09951649400591789,-0.004610679166391258,0.23761820304393408,-0.018867994599999785,0.009061344600001008,9.987641532400001,1.0
295,196.515,0.6986301369863014,0.08992078592645411,0.029174304779169102,0.5891896533629924,-0.8023724263015187,-0.08838174441456906,-0.0009327038135383018,0.17303449356556583,-0.015023787800000384,0.0052171378000016085,10.010706773199997,1.0
296,196.632,0.7936507936507936,0.09457250052648969,0.024998870640916677,0.5825662603293786,-0.8068577715365088,-0.07508821684121984,0.00345834839344059,0.09592945265769373,-0.010434275599999652,0.000627625600000882,10.038243846400002,1.0
297,196.715,0.6666666666666666,0.09590422140331227,0.023026579171876373,0.5803605669760823,-0.8083565597580196,-0.05621250839903766,0.013577190399170967,0.07110004055499874,-0.00980665,1.231722648315983e-15,10.057778693200001,1.0
298,196.818,0.5757575757575758,0.09697355966402607,0.02087235426645869,0.5783621668126449,-0.809717708872724,-0.02998933847993207,0.028209887295963652,0.04913931369781154,-0.00980665,1.234691441838106e-15,10.082020732000004,1.0
299,196.915,0.6388888888888888,0.09736690812776437,0.018714243859379368,0.5767075759509667,-0.8109078894046107,-0.007239755127579547,0.04375579239427943,0.0311578709408643,-0.00980665,1.2372422984080846e-15,10.1028500566,1.0
300,197.035,0.5671641791044776,0.09428075147953731,0.01529123669804399,0.5759845025749822,-0.8118465529528466,0.009574875947088068,0.07326664151251328,0.024631511919200384,-0.00980665,1.2389716926928163e-15,10.1169716326,1.0
301,197.115,0.7272727272727273,0.09222331371405235,0.013009231923820135,0.5755024536576592,-0.8124723286516706,0.020784629996867802,0.0929405409246715,0.02028060590475726,-0.00980665,1.240124622215971e-15,10.126386016600001,1.0
302,197.235,0.5573770491803278,0.08706178386529898,0.00885141272340189,0.5752271691412341,-0.8132653234224897,0.03486508101343806,0.10887633893356997,0.017285028925217247,-0.00980665,1.2406002056442718e-15,10.13026945,1.0
303,197.323,0.5294117647058824,0.08269937425836645,0.0055979493172817925,0.5751498511901239,-0.8138063335600156,0.04443020305310675,0.11678654210738525,0.016070398053087437,-0.00980665,1.2406002056442718e-15,10.13026945,1.0
304,197.435,0.5208333333333334,0.0768681075010294,0.0014318637165988165,0.5751133555464809,-0.8144308673206484,0.05105363039008097,0.1239688495196492,0.01385208923953117,-0.00980665,1.2404265716799414e-15,10.128851621084337,1.0
305,197.515,0.625,0.07228203819500037,-0.0015820836065059906,0.5751806421031426,-0.8147804178379138,0.04741505288096373,0.12474833464766111,0.01125362385288817,-0.00980665,1.2400407184258736e-15,10.125700890160644,1.0
306,197.635,0.5714285714285714,0.0654029342359552,-0.006103004591164271,0.5752815719381352,-0.8153047436138119,0.041957186617286577,0.12591756233967924,0.007355925772922747,-0.00980665,1.239461938544772e-15,10.120974793775101,1.0
307,197.715,0.5918367346938775,0.0613825523529247,-0.008792868650061037,0.5706045994886814,-0.8187981779882351,0.04654525619745311,0.10918904957175074,0.1458172478936763,-0.00980665,-0.002628182199999046,10.1204628,1.0
308,197.826,0.65,0.05595656483189837,-0.012437806496284273,0.5628380677998,-0.8244917033330965,0.05512595120072344,0.0812647976279266,0.37590794304012687,-0.00980665,-0.006982334799998654,10.1204628,1.0
309,197.915,0.84,0.051690561193628415,-0.015370521420389758,0.5517356600434611,-0.8318527677457324,0.058719324141741275,0.06449648070335363,0.5533235764503411,-0.010473502199999839,-0.009806649999998761,10.1217965044,1.0
310,198.021,0.52,0.0470362622813827,-0.018914855365618752,0.5139207369848777,-0.8547236201289297,0.04642031076550594,0.07288115155696802,0.728956940174087,-0.014631521799999625,-0.00980664999999876,10.1301125436,1.0
311,198.115,0.30952380952380953,0.04290886513278624,-0.022057943958558587,0.48038674861216196,-0.8750053194121482,0.035513638526199744,0.08031661438942068,0.8847072815895296,-0.018318822200000508,-0.009806649999998758,10.137487144400001,1.0
312,198.217,0.42857142857142855,0.03843475413637998,-0.026996904359826903,0.4377478851108184,-0.8961543812921663,0.028871389321982174,0.08508568286895817,0.9619753024578149,-0.01690666459999934,-0.012513285399999418,10.1427827354,1.0
313,198.315,0.21428571428571427,0.0341381910589315,-0.03244447677840671,0.39390880213564583,-0.9160794726515229,0.024875672139227326,0.0881517285108568,0.9940592377185826,-0.013062457799999937,-0.01635749219999882,10.1466269422,1.0
314,198.416,0.3,0.02968671996219237,-0.03784447671240365,0.3478977626623534,-0.935694198915264,0.021893112719059006,0.08821752837300303,1.023372820854187,-0.010512728800000027,-0.018201142399998704,10.14988275,1.0
315,198.628,1.0,0.020116742867488928,-0.04710463224039445,0.24328730230755363,-0.9679581701716078,0.026622696071862947,0.05840852543711819,1.0485826158523548,-0.0188287679999996,-0.0015690639999995613,10.14988275,1.0
316,198.715,0.6666666666666666,0.016250815965831385,-0.04936241888524187,0.19869727069003168,-0.9769342520609987,0.027480524830520197,0.04514386193454165,1.0537529058456423,-0.022241482200000287,-0.0026281821999990414,10.160395478800002,1.0
317,198.822,0.46153846153846156,0.011518702838929449,-0.051572986290325216,0.14324712340388834,-0.9864082412957434,0.0281379226893187,0.028451073944567737,1.058211783409119,-0.026438728400000257,-0.006825428399999014,10.177184463600002,1.0
318,198.915,0.3235294117647059,0.007379162686145469,-0.05310943246136254,0.09614482100462804,-0.9935009271952493,0.03104510494018188,0.013626032556765231,1.033223074415464,-0.030078894861659884,-0.008488760276678987,10.189768294861661,1.0
319,199.02,0.4444444444444444,0.0025713172414740925,-0.052901430723616756,0.048480064483277185,-0.9957460574798522,0.04611720921464456,-0.004708707317887764,0.8593198371970017,-0.03414884841897261,-0.00034885316205353,10.193838248418974,1.0
320,199.115,0.34545454545454546,-0.0017786381608468228,-0.05271323867518013,0.005354808583015347,-0.9977773658325879,0.05975387498677493,-0.021297281490189782,0.7019788130469933,-0.037831187351778685,0.007015824703558616,10.197520587351779,1.0
321,199.23,0.5111111111111111,-0.0061275323749876735,-0.05078540761282601,-0.02645251214174106,-0.9980723732781995,0.052699398069134484,-0.03722769072309155,0.5162565404729779,-0.0392266,0.01293054254032313,10.18017264475807,1.0
322,199.315,0.5777777777777777,-0.00903312294768487,-0.048787890203059354,-0.04309219659179364,-0.9975615646924488,0.039549085161379297,-0.0476043752785163,0.38058114844946195,-0.0392266,0.016291692741936474,10.160005743548389,1.0
323,199.423,0.45901639344262296,-0.012039712457498089,-0.04610092821440702,-0.06145989410363928,-0.9969517901629854,0.022735428756042543,-0.05759719470816269,0.23324159148239218,-0.038277569354838635,0.020562330645162604,10.132483854838709,1.0
324,199.515,0.45454545454545453,-0.012557911487368907,-0.04336797321019905,-0.06883436131571312,-0.9965493842464547,0.008099558688100951,-0.05659367985302411,0.18241026504867097,-0.0346396185483875,0.024200281451613743,10.103380248387099,1.0
325,199.627,0.5769230769230769,-0.01318876248025536,-0.04004089755290115,-0.07781197357389336,-0.9960594987828518,-0.009718022264182453,-0.055372009594594075,0.12052865025976972,-0.030210808870967054,0.02862909112903418,10.067949770967736,1.0
326,199.715,0.5454545454545454,-0.012779681485196603,-0.03769751372222521,-0.08191321605370688,-0.9958312338075183,-0.01591113514252167,-0.052074456203078025,0.09360842199788932,-0.02941995,0.03206618888889049,10.043099227777775,1.0
327,199.824,0.6590909090909091,-0.011943374243577956,-0.03489354774638638,-0.08591751929303851,-0.9956055630475106,-0.020738235397619778,-0.047138362369011616,0.06816984185327755,-0.02941995,0.036307954166668446,10.013406870833329,1.0
328,199.915,0.574468085106383,-0.011185022126590267,-0.03261926850272488,-0.08901102037710837,-0.995431577604576,-0.02428659789234268,-0.043487899977878525,0.049507811082056395,-0.02941995,0.03922660000000123,9.988565326706828,1.0
329,200.024,0.6808510638297872,-0.00993893852469734,-0.03026933166702082,-0.09131532507797316,-0.9953041334621198,-0.025832784941876304,-0.041757064785464176,0.041616070880947174,-0.02941995,0.03922660000000122,9.958515230522087,1.0
330,200.115,0.6304347826086957,-0.008898630196511492,-0.028307457795010992,-0.09323910239704379,-0.9951977351413536,-0.027123638350202553,-0.040312055588127414,0.03502755383231465,-0.02941995,0.03922660000000122,9.933427535542165,1.0
331,200.224,0.6304347826086957,-0.007627836478977691,-0.026131020332248213,-0.09508793564602154,-0.9950916963884949,-0.026698863446712573,-0.0390340249240399,0.030591487228870576,-0.032401171599999744,0.039226600000001215,9.9153861352,1.0
332,200.315,0.6296296296296297,-0.006557941038642507,-0.024376889130470012,-0.09646634583191226,-0.9950109282052731,-0.0256297492533922,-0.03813118956983087,0.0281406846195459,-0.03597079220000006,0.039226600000001215,9.904677273399999,1.0
333,200.423,0.6666666666666666,-0.005314568332658575,-0.022357302708937134,-0.09805066147429485,-0.9949144573232642,-0.024514342099428144,-0.03685126341879357,0.025614912807941374,-0.0392266,0.03922660000000121,9.890987189999999,1.0
334,200.515,0.6666666666666666,-0.004330043184483616,-0.02081293714221406,-0.09925433197036766,-0.9948305415531116,-0.023998107939958626,-0.03517148716747778,0.02454615110158932,-0.0392266,0.03922660000000121,9.876551801200002,1.0
335,200.625,0.6415094339622641,-0.0031528935507958225,-0.018966413095044633,-0.10069350321567253,-0.9947302074801029,-0.023380871444940544,-0.033163059040903976,0.023268283843994098,-0.0392266,0.03922660000000121,9.859292097199999,1.0
336,200.715,0.7169811320754716,-0.0024319900457323556,-0.01706436903745454,-0.1017581915574152,-0.9946555531417349,-0.02175684298574908,-0.03866771847009723,0.021831310123205064,-0.0392266,0.044482964400001775,9.845170521199998,1.0
337,200.827,0.7068965517241379,-0.0016383409648636806,-0.014530239207875164,-0.10303494260793947,-0.994565827106915,-0.019257788792252494,-0.048571533262729824,0.019875851482152908,-0.0392266,0.05326972280000136,9.8275970044,1.0
338,200.915,0.75,-0.001066376462732102,-0.012396037306362462,-0.1040133757118154,-0.994495896108601,-0.017401705606446754,-0.05573057583551607,0.01852185939523311,-0.0392266,0.05752201027668143,9.81118509110672,1.0
339,201.024,0.5769230769230769,-0.0006249413759780068,-0.009012263113844603,-0.10509737516145332,-0.9944122155182938,-0.015658594719447205,-0.061377618402949315,0.017788539555939783,-0.0392266,0.04907201146245197,9.777385095849803,1.0
340,201.115,0.6862745098039216,-0.00025640382648605266,-0.0061872773200911365,-0.10600236552766479,-0.9943423537410648,-0.014203337006447568,-0.06609212183080647,0.017176318405704067,-0.0392266,0.042017425296443825,9.74916675118577,1.0
341,201.215,0.6274509803921569,5.123503011571722e-05,-0.0029047908207232138,-0.10691638390583708,-0.9942565051108458,-0.012965238713208753,-0.06808511936856854,0.01642893945738197,-0.0392266,0.039226600000001194,9.717757462903228,1.0
342,201.315,0.5098039215686274,0.0003041159396118057,0.000477880588400619,-0.1077851342360237,-0.9941655504169983,-0.011930251298772778,-0.06828499321014649,0.015639593253933673,-0.0392266,0.03922660000000119,9.68612310806452,1.0
343,201.414,0.6078431372549019,0.0005226608333899607,0.0038210780111814138,-0.1086285538546258,-0.9940728404456326,-0.010645773848519106,-0.06836244806647308,0.014837883748114244,-0.0392266,0.03922660000000119,9.656019856000004,1.0
344,201.515,0.5084745762711864,0.0005639020273862296,0.00719955116790227,-0.10939392741901124,-0.9939630330535055,-0.007850847832858965,-0.06775349098443993,0.01390424853563323,-0.0392266,0.03922660000000118,9.632248536400004,1.0
345,201.631,0.4745762711864407,0.0006112681511839307,0.011079777763740585,-0.11027297032464216,-0.9938369176328448,-0.004640833795070667,-0.0670540947318077,0.012831954628229156,-0.0392266,0.03922660000000117,9.6049468228,1.0
346,201.715,0.6557377049180327,0.0005604886746941257,0.013838514157682214,-0.1108517106086701,-0.9937336356363617,-0.004305121921002871,-0.0671117851138115,0.011697878994047613,-0.036637644399999905,0.04440451120000137,9.587765572,1.0
347,201.822,0.6190476190476191,0.0004662485993772772,0.017334872529941658,-0.1115688328355653,-0.9935979201399988,-0.004568396640941505,-0.06738125875592232,0.01012905601784585,-0.03244039819999993,0.05279900360000131,9.566779341,1.0
348,201.915,0.5555555555555556,0.0003596282096972513,0.02038119414858682,-0.11217767175962008,-0.9934769144892017,-0.004610347636044107,-0.06769684642553322,0.009118924565613213,-0.02941995,0.05758464880000186,9.549794223200001,1.0
349,202.026,0.5873015873015873,9.043402482756136e-05,0.02405980796690002,-0.11282132609824518,-0.993314984718697,-0.0035870082303880767,-0.06854091390967376,0.009943339705467303,-0.02941995,0.04887634360000041,9.536731765399999,1.0
350,202.115,0.7142857142857143,-0.00012540635763548427,0.027009327154556017,-0.11333740930669221,-0.9931851491369409,-0.002766492851078435,-0.06921768873929984,0.010604357250034878,-0.02941995,0.04189400880000052,9.526258263199999,1.0
351,202.223,0.6338028169014085,-0.00042281939499776025,0.030627272254962777,-0.11388623977098805,-0.9930138551838171,-0.001458260505925699,-0.06948139250278473,0.009881265509873475,-0.02941995,0.033421063200000205,9.5164516132,1.0
352,202.315,0.6025641025641025,-0.0006900634328929127,0.03372439318771982,-0.11432345743962324,-0.9928625601354653,-0.00022151068272073396,-0.06948780834674835,0.008668338384479335,-0.02941995,0.026203368800001414,9.5092339188,1.0
353,202.43,0.6133333333333333,-0.0010420451801508735,0.03764418378883238,-0.11484500471609889,-0.9926650076769031,0.0008297457608859838,-0.07013928189873708,0.007385367136448597,-0.02941995,0.01839727540000093,9.50264385,1.0
354,202.515,0.6486486486486487,-0.0013381092870881485,0.04063833492516012,-0.11518047650711685,-0.992502099689272,0.0006160121182911464,-0.07190951824188202,0.006904113460332247,-0.02941995,0.015063014400001733,9.50264385,1.0
355,202.623,0.6486486486486487,-0.0017142848582556145,0.044442668133671724,-0.11560672301805744,-0.9922951107167526,0.00034444466652351266,-0.07415875971317269,0.006292638201266596,-0.02941995,0.010826541600001573,9.50264385,1.0
356,202.715,0.7733333333333333,-0.00212632656773139,0.04775968289889993,-0.11592086211231338,-0.9920989360522404,0.00041950246412307557,-0.07438401472568511,0.006928576961159745,-0.0268309943999999,0.01757351680000146,9.50264385,1.0
357,202.825,0.6987951807228916,-0.00266212810743849,0.051761610849876225,-0.11627340243476984,-0.9918550294090027,0.0006535610426217056,-0.07385696631670004,0.00823381990566836,-0.02251606840000048,0.03051829479999972,9.50264385,1.0
358,202.915,0.6777777777777778,-0.003116587985156313,0.05510802734567042,-0.11654796210811082,-0.9916468762829332,0.0009357151621951962,-0.07453578126430455,0.008621860794723313,-0.0196133,0.03797134880000186,9.504526726799998,1.0
359,203.027,0.7012987012987013,-0.0037746689694690316,0.05968750028344717,-0.11680973539392958,-0.9913383829567849,0.0018085908750071023,-0.08176940476894287,0.005191639333963836,-0.0196133,0.02918459040000227,9.517706864399997,1.0
360,203.115,0.6521739130434783,-0.004291732600000609,0.06328565759170142,-0.11701541440421581,-0.9910959953433826,0.002494421792216663,-0.08745296609401756,0.0024964653290805803,-0.0196133,0.022280708800000524,9.5280626868,1.0
361,203.219,0.7666666666666667,-0.004848739347542677,0.06715990639728843,-0.11720907630264002,-0.9908136802068367,0.003173952735960443,-0.08004022195935342,0.0007752777752467261,-0.01686743800000027,0.016867438000001435,9.540301386,1.0
362,203.315,0.7833333333333333,-0.005338657742539685,0.07056660582187706,-0.11736568659944423,-0.9905549391186231,0.0037424795702099612,-0.06686262348294301,-0.0001571158128790167,-0.013101684400000126,0.013101684400001295,9.5515986468,1.0
363,203.427,0.7714285714285715,-0.0058640537160504855,0.07409586034083782,-0.11754481077903078,-0.9902808405536248,0.00405107123032218,-0.05277589586377221,-0.0008867500363849299,-0.00980665,0.008708305200001503,9.571368853199997,1.0
364,203.515,0.78125,-0.006168022617985584,0.07581937969709616,-0.11767709417009128,-0.9901309259133594,0.0034574819393456964,-0.044741719156505,-0.0006158038000576592,-0.00980665,0.0052563644000017465,9.602436320399995,1.0
365,203.622,0.8125,-0.006537621169202246,0.07791502255072918,-0.11783793874785808,-0.9899486433394004,0.0027357313241808717,-0.03497289066016554,-0.0002863578081596194,-0.00980665,0.0010591182000006631,9.640211536200006,1.0
366,203.715,0.7083333333333334,-0.006826664626479919,0.07938396092653532,-0.11791723980402971,-0.9898204453441412,0.0020711396834812877,-0.0318314858973026,-0.0006508472096175085,-0.012395605600000099,1.1842892061842056e-15,9.670455244800001,1.0
367,203.824,0.7222222222222222,-0.0071499987111584475,0.08093660201387462,-0.11798117673772587,-0.9896846883909343,0.0012743370432871494,-0.030714445188641432,-0.0013900994672440725,-0.016671305000000445,1.1884781834516669e-15,9.704660840000003,1.0
368,203.915,0.7088607594936709,-0.007439863894846315,0.08226577581745961,-0.11800784334375686,-0.9895706479912362,0.0009646076592615415,-0.03056703189015354,-0.0021741279829291926,-0.018985674400000346,1.1918985410370243e-15,9.732590179199997,1.0
369,204.035,0.75,-0.007945270913499839,0.08422209666886049,-0.11787789311647459,-0.9894159256006455,0.0027535775094292415,-0.03522597709298117,-0.004239393273368399,-0.01427848240000017,1.1959337943680648e-15,9.765540523199999,1.0
370,204.115,0.7763157894736842,-0.008282208925935562,0.08552631056979457,-0.11779125963161974,-0.9893127773402517,0.003946224076207849,-0.038331940561533294,-0.005616236800328033,-0.011140354399999679,1.1986239632554254e-15,9.787507419200002,1.0
371,204.222,0.7808219178082192,-0.008609986574073305,0.08623725738354204,-0.11764259244539098,-0.9892669258526902,0.004706755052302128,-0.016046422604187472,-0.0068244734571215665,-0.00695451673306749,1.2018629985582078e-15,9.813956149601594,1.0
372,204.315,0.8082191780821918,-0.008845135154008778,0.0864368327156532,-0.11750010121483774,-0.9892643607382906,0.005029906082779622,0.014026404466047561,-0.0076182579595698964,-0.0033209770916337146,1.204532880173082e-15,9.835757387450197,1.0
373,204.421,0.8051948051948052,-0.008994788218902391,0.08559384660342605,-0.11734249415929059,-0.9893492933771337,0.005238463903116415,0.048982627043916656,-0.007933091462379754,0.0,1.2073798741219295e-15,9.859004857258062,1.0
374,204.515,0.8441558441558441,-0.008702637650348781,0.08100398920626105,-0.11721996679243306,-0.9897399622930679,0.004849951733053994,0.08242113676462393,-0.006094861204826364,0.0,1.2092006969575562e-15,9.873873004032255,1.0
375,204.623,0.7710843373493976,-0.00836697529498928,0.07573053602653902,-0.1170791906688095,-0.9901888159411625,0.00440357604830138,0.12083985006075956,-0.003982851972743533,0.0,1.2112927061729576e-15,9.89095555564516,1.0
376,204.715,0.8333333333333334,-0.007946689184474177,0.06964787855324049,-0.11695717714001398,-0.9906268082385222,0.004603439472630587,0.13564415940962993,-0.003287669642275546,0.0,1.2111358131991155e-15,9.889674427290835,1.0
377,204.823,0.7564102564102564,-0.007394460213554183,0.06181070426035798,-0.11681302702032256,-0.9911653429685593,0.005092165471830134,0.14517248145850128,-0.002955140375283603,0.0,1.210102310638519e-15,9.881235238446214,1.0
378,204.915,0.7972972972972973,-0.0069077300664189935,0.055120588997011916,-0.1166854964600519,-0.9916038031311267,0.005431616965681317,0.15132934296131165,-0.002878702998161247,0.0,1.2092213071224195e-15,9.8740412988,1.0
379,205.029,0.7183098591549296,-0.0062085924694983054,0.046748238853030595,-0.11649959390157613,-0.9920276784902061,0.005399791002273561,0.14742303311824814,-0.004001351483166191,0.0,1.2081260240754228e-15,9.865097634,1.0
380,205.115,0.7464788732394366,-0.005681172878838781,0.04043225541107908,-0.11635935162062071,-0.9923474441119678,0.0053757819421589356,0.144476167798042,-0.0048482617437840495,0.0,1.207299757917162e-15,9.8583506588,1.0
381,205.222,0.7681159420289855,-0.005003207057953454,0.032871172553551924,-0.11617046176466268,-0.9926416634187297,0.003697918471383254,0.13968050043757346,-0.0045810787686775024,0.0,1.2059039398877577e-15,9.846952939634146,1.0
382,205.315,0.7536231884057971,-0.004405139219505658,0.026419691022642328,-0.11600045619352997,-0.9928554364546442,0.0015724588678186517,0.13505518036644681,-0.003814137118633901,0.0,1.2045418661370802e-15,9.835830763414636,1.0
383,205.435,0.7375,-0.0036337864496923454,0.018559564106608244,-0.11576785127319304,-0.9930816585808901,0.0002299303229710428,0.12678576536535346,-0.003576056938251706,0.0,1.2031810609336257e-15,9.824718945669293,1.0
384,205.515,0.8571428571428571,-0.0031200148256751116,0.013938633338473571,-0.11559512413554332,-0.9931663212662171,0.0012015779275815095,0.11820447527048365,-0.004419366082939033,0.0,1.2028028032160554e-15,9.821630237007875,1.0
385,205.621,0.7714285714285715,-0.002439267423851993,0.007815900070692586,-0.11536626067815733,-0.9932784993242754,0.0024890110036909128,0.1068342658947764,-0.005536750699650206,0.0,1.2023016117402744e-15,9.817537698031495,1.0
386,205.715,0.7323943661971831,-0.0019154029409269686,0.0033471382615589585,-0.11517907789440761,-0.9933255960117741,0.002413323803979198,0.09602654520496415,-0.004074765997753268,0.0,1.2018534290900538e-15,9.813878008964142,1.0
387,205.835,0.7323943661971831,-0.0012898676418014944,-0.0018372909025985984,-0.11494866282973064,-0.993357350098382,0.0016573895106603916,0.0818369649202221,-0.0008799607204124094,0.0,1.2012792610008336e-15,9.80918957071713,1.0
388,205.915,0.7848101265822784,-0.0009025005431282763,-0.0050829950107271205,-0.11479388873053015,-0.9933743883636248,0.0012135709508277602,0.0725469076669374,0.0006956591268060112,0.0,1.2010406007709768e-15,9.807240762048192,1.0
389,206.017,0.7721518987341772,-0.0005724592905954094,-0.00805780219135828,-0.11459012034419327,-0.9933732876816028,0.0009799627243563796,0.06163947239338714,-0.00035765868364770166,0.0,1.2015325636699132e-15,9.811257943975903,1.0
390,206.115,0.7972972972972973,-0.000255360832279487,-0.010915950266866923,-0.11439434287496764,-0.9933722301635817,0.0007555156048054234,0.051159779679582934,-0.0013696699132994057,0.0,1.2020052339061462e-15,9.81511758935743,1.0
391,206.235,0.8108108108108109,5.2611327212973935e-05,-0.013230284137544611,-0.11417900825171938,-0.9933703530070238,-0.0002768786763773782,0.03847836722433433,-0.0021509003862739294,0.0,1.202169221539125e-15,9.81645665,1.0
392,206.315,0.881578947368421,0.00023675868409495906,-0.01446073202325046,-0.11404188097004252,-0.9933689481116278,-0.0011648087901994233,0.03006385494768653,-0.0025510162338614343,0.0,1.202169221539125e-15,9.81645665,1.0
393,206.426,0.7647058823529411,0.0004457623538830884,-0.015844686535062193,-0.11386187060766387,-0.9933700916298557,-0.00214925773814318,0.018567548434251357,-0.002732439975720018,0.0,1.2020395169677701e-15,9.8153975318,1.0
394,206.515,0.8589743589743589,0.0004973459135319248,-0.01614789381772921,-0.11374311587510842,-0.9933787235038197,-0.002321068376302691,0.00979587778821731,-0.0019456209782512295,0.0,1.2016119722696004e-15,9.8119063644,1.0
395,206.622,0.9358974358974359,0.0005593621032221158,-0.016512423921609884,-0.11360034333147431,-0.9933891011500461,-0.0025276272334158675,-0.000749838606455732,-0.000999670048709842,0.0,1.201097957857194e-15,9.807709118199998,1.0
396,206.715,0.8352941176470589,0.000568346019121336,-0.016177323517292504,-0.11347452004175207,-0.9934087640853798,-0.0023294191677123216,-0.00786250414699333,-0.0004180556521750847,0.0,1.2012853089047066e-15,9.8092389556,1.0
397,206.825,0.8470588235294118,0.000557237637183373,-0.015465515790396513,-0.11332485908657822,-0.9934371712136133,-0.001912201844155835,-0.015281832342966564,0.00015347184520208613,0.0,1.2018137349361524e-15,9.813553881599999,1.0
398,206.915,0.8433734939759037,0.0005249527108907378,-0.014786321368216962,-0.11320837478725912,-0.9934607881865553,-0.0015381811099360284,-0.020847868639975467,0.00016444085122223513,0.0,1.2020941610232946e-15,9.815843734375,1.0
399,207.029,0.8313253012048193,0.0003481671053900865,-0.013358884964787035,-0.11309577632384163,-0.9934928985882114,-0.0008730818681215441,-0.024943688244093043,-0.0024968401899058126,0.0,1.2015593548480033e-15,9.811476710546874,1.0
400,207.115,0.8375,0.00021480252580186114,-0.012282046976234515,-0.11301083362336879,-0.9935171222245486,-0.0003713403348228428,-0.028033517068252252,-0.004504473256020175,0.0,1.201155904575415e-15,9.808182289062499,1.0
401,207.223,0.759493670886076,1.4625200668341823e-05,-0.010654195615745052,-0.11290064705467763,-0.993547463445992,-0.00013466210826775196,-0.03051882542061579,-0.0053460420052311676,0.0,1.2009682532858392e-15,9.80665,1.0
402,207.315,0.7341772151898734,-0.00017227995384115342,-0.009129435669384305,-0.1128050234237364,-0.9935732700058996,-0.00013018377619434407,-0.03193694949910339,-0.005221281789851436,0.0,1.2009682532858392e-15,9.80665,1.0
403,207.427,0.7160493827160493,-0.0004019123754152758,-0.007274211809063952,-0.11269387314774948,-0.9936021990830578,-0.0003254669597853759,-0.033264628162540756,-0.0046852235923489916,0.0,1.2009682532858392e-15,9.80665,1.0
404,207.515,0.8170731707317073,-0.0005875216867409189,-0.005819023413583388,-0.1126195543575122,-0.9936187758707247,-0.0009754309606963137,-0.03332151960863534,-0.003313757909603184,0.0,1.2009682532858392e-15,9.80665,1.0
405,207.622,0.8571428571428571,-0.0008132057357392183,-0.004049646614532573,-0.11252918946483727,-0.9936389317375469,-0.0017657280981678276,-0.03339069443513673,-0.001646180318082164,0.0,1.2009682532858392e-15,9.80665,1.0
406,207.715,0.8,-0.0009956998106715731,-0.0025543330431756954,-0.1124594901392286,-0.9936509948675688,-0.001638018092140593,-0.03239292606711399,-0.0014022488296031683,0.0,1.2009682532858392e-15,9.80665,1.0
407,207.822,0.7763157894736842,-0.00119854400749681,-0.0008561045281328308,-0.11238390817121989,-0.9936620297859203,-0.001066399535397109,-0.03069343723356736,-0.0017500469684600542,0.0,1.2009682532858392e-15,9.80665,1.0
408,207.915,0.7878787878787878,-0.0013741364729794889,0.0005944548855341672,-0.1123173966194112,-0.9936709203872061,-0.000850581049023071,-0.02962691061587673,-0.002040800829249645,0.0,1.2009682532858392e-15,9.80665,1.0
409,208.023,0.7878787878787878,-0.0015733887051591552,0.002112064294073334,-0.1122347917184427,-0.9936766546095578,-0.002441402876526913,-0.031079018181825575,-0.002302842147379004,0.0,1.2009682532858392e-15,9.80665,1.0
410,208.115,0.7761194029850746,-0.0017431220881270369,0.0034048426791253505,-0.11216442458058061,-0.993681539317487,-0.003796547396252548,-0.03231599870096731,-0.0025260625294892215,0.0,1.2009682532858392e-15,9.80665,1.0
411,208.222,0.9436619718309859,-0.0010591951982769638,0.006556711588698359,-0.11207128496806464,-0.9936684683991346,-0.017681324966252354,-0.05512207207083787,-0.0028955706655979198,0.0,1.202697647570571e-15,9.820771576,1.0
412,208.315,0.7560975609756098,-9.238350879680539e-05,0.009992610856053411,-0.11198555768984216,-0.993649184808897,-0.03494991818442793,-0.08397207088768235,-0.003263162644579965,0.0,1.2049314485216823e-15,9.839011944999998,1.0
413,208.416,0.7230769230769231,0.0011998945343227442,0.014268876812038027,-0.11187390981475877,-0.9936084996194846,-0.051899124115704846,-0.11219815987348454,-0.0037631341107188607,0.0,1.2084334719482632e-15,9.867608136399994,1.0
414,208.515,0.6615384615384615,0.003728310916060749,0.021297430791847326,-0.11166789708649891,-0.993465813378174,-0.05911426328122475,-0.12369336232542767,-0.004777885982766534,0.0,1.2174695570859848e-15,9.941393370999986,1.0
415,208.626,0.7105263157894737,0.006563202010737464,0.029177930708605353,-0.11143691311844992,-0.9933058318348863,-0.06720396476984017,-0.1365819226503371,-0.005915638081729386,0.0,1.2276009252707058e-15,10.0241222704,1.0
416,208.715,0.6842105263157895,0.008495146137440669,0.03428100125398601,-0.11123524545295836,-0.9931471260097462,-0.06072568805866077,-0.12109461361431129,-0.0051772798118423086,0.0,1.2335235839446312e-15,10.072484448605575,1.0
417,208.826,0.6987951807228916,0.010747583241930134,0.04008575252375622,-0.11097614552009089,-0.9929351754012591,-0.04667581804838987,-0.08988820206359527,-0.003496297991341317,0.0,1.239896849734976e-15,10.124526113147402,1.0
418,208.915,0.6829268292682927,0.012433833650727725,0.04434121149706224,-0.11077728918291763,-0.9927765445935702,-0.036585912343086044,-0.0669983908768737,-0.0024073371245693764,0.0,1.2445340859070029e-15,10.162392020078736,1.0
419,209.02,0.7073170731707317,0.013666334498011247,0.04684118452436752,-0.11059887307067644,-0.9926608875653986,-0.03211028514591241,-0.05346540605106638,-0.0027586195790245617,0.0,1.2470164021785589e-15,10.182661670669292,1.0
420,209.115,0.7402597402597403,0.014781454312219942,0.04910306488240522,-0.11043744896912491,-0.9925562454922909,-0.02806090815799415,-0.04122127692295727,-0.0030764465616268137,0.0,1.2492623073766329e-15,10.201000878346457,1.0
421,209.217,0.7402597402597403,0.01582289186318442,0.051032748315004484,-0.11027658064890229,-0.9924618646943787,-0.02464911933152014,-0.03370159358090243,-0.0023673317513940315,0.0,1.2508157886640584e-15,10.213686015714288,1.0
422,209.315,0.8089887640449438,0.01672688404107579,0.05257753299310124,-0.11012973827484618,-0.9923823250845347,-0.021951293154638816,-0.029964536580504447,-0.0010349479389890944,0.0,1.251776563266687e-15,10.221531335714285,1.0
423,209.421,0.7619047619047619,0.017601763012075337,0.05400147658761569,-0.10998230741726825,-0.9923092944996935,-0.017806722850385877,-0.023278754673841627,0.00014709794376407156,0.0,1.2529077661297167e-15,10.230768308070864,1.0
424,209.515,0.8333333333333334,0.018008219561878272,0.05437783169678548,-0.10989248113383804,-0.9922912010765144,-0.009728904342368134,-0.007860709245751822,0.0002653000870119879,0.0,1.2542411245841522e-15,10.24165600610236,1.0
425,209.635,0.8297872340425532,0.018527100263754415,0.05485828502764058,-0.1097778092826505,-0.9922681030894771,0.0005832043912725772,0.011821901939045656,0.0004161964400944494,0.0,1.2559432843132187e-15,10.255555195078738,1.0
426,209.715,0.8041237113402062,0.01849291596480669,0.05397481600966536,-0.1097364720548994,-0.9923204086769459,0.0032439932162775815,0.0186110960879949,-0.0006616730317502683,0.0,-0.002431730284551777,10.262619360569106,1.0
427,209.827,0.84,0.01827930734302392,0.05221303618867564,-0.1096939104918328,-0.9924231599900601,0.005131538902462297,0.025354562312122,-0.0026845791985467384,0.0,-0.006896546544714,10.27154899308943,1.0
428,209.915,0.7333333333333333,0.018061640149470537,0.05093577373869437,-0.11051799539396799,-0.9923977217961075,0.008954136036334064,0.027329222746195612,0.020628810878820663,0.0,-0.00980664999999874,10.281487992999997,1.0
429,210.022,0.7176470588235294,0.017502100445423458,0.05001586241796571,-0.11659435362986721,-0.9917385302347592,0.027446031689641385,0.01006202986836667,0.19633630299565824,0.0,-0.009806649999998737,10.310868716399996,1.0
430,210.115,0.6,0.01701577154377497,0.04921631332611727,-0.12187567433957507,-0.9911655880365778,0.043518426977098575,-0.004945904128253971,0.34905402978882755,0.0,-0.009806649999998734,10.336405233,1.0
431,210.217,0.4166666666666667,0.01662905716005519,0.048701862197718056,-0.14963398253287452,-0.9864541876262778,0.03931135142594465,-0.007729895380092407,0.5424479562044291,0.0,-0.012434832199999015,10.369669389800002,1.0
432,210.315,0.2676056338028169,0.016331126368758813,0.048389511981189307,-0.1873284602795246,-0.9798782749959292,0.024310291819275645,-0.0035405329440257203,0.7412556022405463,0.0,-0.016279038999998413,10.404267250999997,1.0
433,210.423,0.30985915492957744,0.016832917165824204,0.04772214949931611,-0.23075862231030375,-0.971055536199722,0.00748686958104436,0.0028609295890197365,0.9229128298759445,0.0,-0.019613299999998723,10.441493294399999,1.0
434,210.515,0.20634920634920634,0.019873717793277536,0.046136363588351895,-0.27370251090419373,-0.9585789717732516,-0.007762326858934538,0.013932256983823728,0.9598009276389998,0.0,-0.01961329999999872,10.470364071999994,1.0
435,210.615,0.21428571428571427,0.023178935866597687,0.04441268325034663,-0.32038065068017957,-0.9450174887009959,-0.02433754038065728,0.025966308499919783,0.9998966860771192,0.0,-0.019613299999998713,10.501745352,1.0
436,210.715,0.2608695652173913,0.026932482469463795,0.04225150913332375,-0.36769699970912245,-0.9268315671731279,-0.028200068064034054,0.029655122160911703,1.025979466438293,0.0,-0.022163028999998623,10.517828258,1.0
437,210.829,0.3,0.03148673034025344,0.039519216766335546,-0.4220293998974073,-0.903260922871678,-0.024799716316163477,0.028737677574157825,1.0471120233535771,0.0,-0.02663486139999879,10.5267719228,1.0
438,210.915,0.3125,0.034787081788719046,0.03742032209062944,-0.4627387461214684,-0.8844486930106563,-0.021952431257814833,0.027592251002789194,1.0619442939758286,-0.0011767979999989296,-0.030008348999998175,10.530576903,1.0
439,211.035,0.0,0.03849855310795308,0.0342426915661109,-0.5177047149759061,-0.8513905555542278,-0.016116254236549582,0.022999965846539024,1.0753104209899893,-0.010591181999999286,-0.03471554099999836,10.516455327000001,1.0
440,211.127,0.2857142857142857,0.04134401445269948,0.03180650816397977,-0.559845291097646,-0.8260459835042968,-0.011641851853579094,0.019479213893413526,1.0855577850341802,-0.017808876400000305,-0.038324388199998866,10.505628785399999,1.0
441,211.234,0.5714285714285714,0.04357641198078899,0.028602312826385812,-0.6059783370948071,-0.7911642210367331,-0.0006698303297158325,0.01477568948268889,1.0886171407699585,-0.0196133,-0.03593156559999859,10.4963320812,1.0
442,211.322,0.42857142857142855,0.045169874277068284,0.025883584792321813,-0.6432713772504242,-0.7612592863695068,0.009652801118790758,0.01077028942108181,1.089138346672058,-0.0196133,-0.03247962479999883,10.4894281996,1.0
443,211.435,0.5882352941176471,0.04652066886371745,0.02214911371647619,-0.6894458783095997,-0.720951840059926,0.02236262392252649,0.004877104312181834,1.0898591089248657,-0.0237320929999996,-0.02804701899999885,10.469579540000002,1.0
444,211.555,0.4,0.046309494753925,0.01760732145605738,-0.7344263573122942,-0.6736348126106002,0.03456908445805323,-0.003155847042798938,1.0907463693618775,-0.03785366900000013,-0.02333982699999868,10.42250762,1.0
445,211.652,0.0,0.04611101508384313,0.013940041486052409,-0.770669661489818,-0.6352962233079824,0.04417745050787978,-0.00965987676381915,1.091391105651856,-0.04911170319999926,-0.019613299999998727,10.38422245840001,1.0
446,211.754,0.12658227848101267,0.04451470659252232,0.010283625530164521,-0.8029913348101428,-0.5904531521404867,0.041368274927139695,-0.017034981578587266,1.0884495162963872,-0.05311281639999941,-0.019613299999998734,10.332207986800007,1.0
447,211.873,0.140625,0.04265234668598144,0.006017806914962155,-0.8406999536838536,-0.5381362357784103,0.0380909034162764,-0.02563927052914973,1.0850176620483403,-0.0577807817999994,-0.01961329999999874,10.271524436600007,1.0
448,211.898,0.10526315789473684,0.042261094604775284,0.005121626533616915,-0.8486219324388367,-0.5271452869628455,0.037402379989624285,-0.027446894258259906,1.084296684265137,-0.058761446799999624,-0.019613299999998744,10.258775791600005,1.0
449,211.898,1.0,0.042261094604775284,0.005121626533616915,-0.8486219324388367,-0.5271452869628455,0.037402379989624285,-0.027446894258259906,1.084296684265137,-0.058761446799999624,-0.019613299999998744,10.258775791600005,1.0
450,211.955,1.0,0.04099245722395527,0.003526560943888703,-0.8632033631456159,-0.5000463594283509,0.03522582098841641,-0.030459784269333108,1.083204913139343,-0.0588399,-0.015298373999998212,10.238338732999997,1.0
451,212.053,0.031578947368421054,0.03878774727843422,0.0008121905147333514,-0.8880555794333362,-0.4533277074344356,0.03144573447108301,-0.03557053792476597,1.0813623476028444,-0.0588399,-0.007609960399999411,10.203740871800003,1.0
452,212.151,0.0,0.03658060322662961,-0.0018929492560408278,-0.9128405101908088,-0.4065810746082862,0.027634301785379314,-0.040642305806279116,1.0795178041458129,-0.058879126600000185,7.845320000161995e-05,10.169143010599997,1.0
453,212.253,0.0,0.0340376262792105,-0.0037765831600023014,-0.9318439785675597,-0.35510149397303037,0.020502616848797988,-0.04198511271178683,1.0773982839584355,-0.06288023979999922,0.008080679599999687,10.133132991800005,1.0
454,212.355,0.0,0.03149464933179069,-0.0056602170639642995,-0.9508474469443161,-0.3036219133377602,0.013370931912214676,-0.04332791961729492,1.0752787637710575,-0.06688135299999938,0.016082905999999987,10.097122973000005,1.0
455,212.465,0.07692307692307693,0.028710496053377957,-0.007294305381467675,-0.9657406818692947,-0.2533187120834208,0.009569367123767757,-0.043470021411776444,0.9420122659206437,-0.06609682100000008,0.022163029000001142,10.065937826,1.0
456,212.524,0.3076923076923077,0.027201682986396664,-0.008023248892736845,-0.9716491704421782,-0.22827400943456294,0.008974616989493419,-0.043061275750398566,0.8218960580825903,-0.06378245160000019,0.024477398400001044,10.052051609600001,1.0
457,212.642,0.3235294117647059,0.02418405685243407,-0.009481135915275184,-0.9834661475879453,-0.1781846041368472,0.007785116720944741,-0.042243784427642816,0.5816636424064836,-0.05915371280000038,0.029106137200000846,10.024279176800002,1.0
458,212.721,0.3695652173913043,0.022676055267637874,-0.009542516482587271,-0.9861509506666247,-0.1628736008121998,0.0013868191142187352,-0.03844319616418448,0.46382672188291996,-0.05606590737051806,0.034967935258965105,10.00852633685259,1.0
459,212.835,0.4788732394366197,0.020583245255164462,-0.009482370675345153,-0.989175406128244,-0.14374229511972028,-0.008757018933139363,-0.03242983244567281,0.30077464599533565,-0.05161189103585662,0.043875967928287976,9.986256255179283,1.0
460,212.919,0.6829268292682927,0.019128814570745806,-0.009278720141048259,-0.9910737018871792,-0.13154196321467143,-0.015108444301568628,-0.02913643015795442,0.19683655432189748,-0.04832433554216863,0.048324335542169854,9.971236306626505,1.0
461,213.04,0.5943396226415094,0.017496633234850272,-0.008143812220261056,-0.9920638531455915,-0.12398408259181586,-0.018326217637782177,-0.03040033439735314,0.13270977142465995,-0.043558855020080944,0.043558855020082166,9.956939865060242,1.0
462,213.13,0.7641509433962265,0.016282614059390545,-0.007299665832898509,-0.9928003292882124,-0.11836251849217011,-0.020719602763891894,-0.03134042845971601,0.08501216431100289,-0.04001428273092411,0.04001428273092533,9.946306148192772,1.0
463,213.235,0.7435897435897436,0.014261929645734927,-0.006218742533932634,-0.9931933682024626,-0.1153746335875702,-0.018851110515039814,-0.038726349483686195,0.05725341420101089,-0.0392266,0.04586855418326864,9.914054306175297,1.0
464,213.323,0.717948717948718,0.012449230716670862,-0.005293877842945736,-0.9934308414298937,-0.11357462108704107,-0.01636603647152864,-0.046156666994807125,0.03948851062571178,-0.0392266,0.052744930278885556,9.883110613745021,1.0
465,213.435,0.7131147540983607,0.009883016552639078,-0.004145955000705678,-0.993660985384701,-0.111876632903392,-0.013917374238371909,-0.054017400026321105,0.02011258212477057,-0.04056030439999968,0.05883990000000121,9.841012501600003,1.0
466,213.526,0.6758620689655173,0.007314932987441571,-0.0032676540167372553,-0.9937135949508078,-0.11160223429179283,-0.013259008061140776,-0.05742928385734558,0.010397625621408231,-0.044129925,0.0588399000000012,9.801746675,1.0
467,213.635,0.6821192052980133,0.004238876848909123,-0.002215623167808328,-0.993776610804716,-0.11127355903174556,-0.012470415607094906,-0.06151604580879138,-0.0012389706298687984,-0.048405624399999236,0.058839900000001194,9.754713981600009,1.0
468,213.72,0.6708074534161491,0.0017111126148721951,-0.0014096505457135396,-0.9937573823630738,-0.11148430573709342,-0.012455964218825085,-0.06281430003046978,-0.0054482699781651985,-0.04903325,0.05613326460000164,9.715330475200005,1.0
469,213.851,0.6459627329192547,-0.002230721161413574,-0.00017265727200858763,-0.9937033145332639,-0.11197601635412875,-0.012648297473788244,-0.06414017677307117,-0.01019687782973009,-0.04903325,0.05099458000000162,9.653666260000005,1.0
470,213.921,0.6193181818181818,-0.004361826394808077,0.0004856507663050244,-0.9936645244186427,-0.11227859219726707,-0.012381344698369812,-0.06471852749586099,-0.012197296433150588,-0.04903325,0.049817782000000456,9.621500448000008,1.0
471,214.047,0.5932203389830508,-0.00830933410160713,0.0016585419327418316,-0.9935501571269889,-0.11300246241845782,-0.010237061485648383,-0.06517396014928813,-0.013381525442004069,-0.04903325,0.05476033360000064,9.567132380400006,1.0
472,214.125,0.6222222222222222,-0.010753029348673213,0.002384617416726522,-0.9934793583273936,-0.11345057255538543,-0.008909648068249404,-0.06545589464902873,-0.014114619590341937,-0.04903325,0.05782000840000076,9.533475957600004,1.0
473,214.244,0.644808743169399,-0.014548579098350993,0.0033545476036924557,-0.9933485782837785,-0.11410235030455669,-0.009354327898472445,-0.06595790734887118,-0.013493077080696912,-0.04903325,0.05519182620000158,9.482128338200004,1.0
474,214.317,0.7602339181286549,-0.016888491794206505,0.003925913914139311,-0.9932644473978242,-0.11449671334065992,-0.010050693713128537,-0.06627819252014158,-0.012813386462628862,-0.04903325,0.052328284400001285,9.450629378400002,1.0
475,214.455,0.7076023391812866,-0.02135639542348119,0.004961670970462245,-0.9930942585112001,-0.11519928607661373,-0.010173882890492652,-0.0670275464653969,-0.011373661488294568,-0.04691501359999992,0.04903325000000115,9.393201635999999,1.0
476,214.523,0.7303370786516854,-0.023592086011251682,0.005438041762525741,-0.9930018531300155,-0.11551257105861595,-0.00931996851786989,-0.067507080733776,-0.010545553430915044,-0.04424760480000056,0.049033250000001145,9.366527548000006,1.0
477,214.635,0.651685393258427,-0.02727439992052144,0.006222652478865768,-0.9928496560315937,-0.1160285698525021,-0.007913521315902717,-0.06829690188169465,-0.009181610748172036,-0.039854225600000764,0.04903325000000114,9.322593756000009,1.0
478,214.718,0.7028571428571428,-0.03008672280113074,0.006763904070737817,-0.9927267405071314,-0.11630878293579021,-0.007150222184136687,-0.06947559562325444,-0.00786471942812239,-0.04185478219999917,0.04903325000000113,9.287407495800009,1.0
479,214.835,0.6896551724137931,-0.034079178476684686,0.007513340317926465,-0.9925500651254271,-0.1166693856145286,-0.006168158929795048,-0.07133687728643413,-0.005905332013964686,-0.046444294399999905,0.04903325000000113,9.236922861600002,1.0
480,214.924,0.6724137931034483,-0.037182394596784345,0.008081005040166823,-0.9924098560252689,-0.11690791392483366,-0.005482827175408624,-0.07305791598558414,-0.004720932826399808,-0.047228826400000305,0.048131038200001273,9.197617808400002,1.0
481,215.035,0.6983240223463687,-0.04128969205967192,0.008780333096960701,-0.9922141771930916,-0.11707736466489123,-0.004848933421075423,-0.07629663026332814,-0.00433917137980465,-0.03852052120000109,0.04377688560000166,9.145367977200006,1.0
482,215.13,0.657608695652174,-0.04480494664502644,0.009378857109532084,-0.9920467043187056,-0.11722239007304863,-0.004306411739438858,-0.07906850284337953,-0.004012438610196156,-0.031067467200001177,0.04005035860000171,9.100649653200007,1.0
483,215.235,0.6577540106951871,-0.049008503178475334,0.010105426507821282,-0.9918323809414802,-0.11722035024407183,-0.004261096298694613,-0.08251461768150341,-0.001881761662661941,-0.02941995,0.035931565600000985,9.041339033999998,1.0
484,215.331,0.6387434554973822,-0.05292450347182932,0.010784585468103375,-0.9916297488756239,-0.11718138101310518,-0.004346365332603436,-0.08575277209281848,0.00047075469046779263,-0.02941995,0.032165812000001945,8.984852730000012,1.0
485,215.445,0.7142857142857143,-0.057836921809788965,0.011634791145918614,-0.9913667060330239,-0.11700861742718921,-0.004540556918829627,-0.08818919378519055,0.003126891676336168,-0.02941995,0.02941995000000109,8.91950121440001,1.0
486,215.524,0.6978021978021978,-0.06153017442646361,0.012272151659694657,-0.9911597075495737,-0.11674944621782804,-0.004777586093172402,-0.08832433304190634,0.004815984353422925,-0.02941995,0.029419950000001086,8.876116594800006,1.0
487,215.635,0.6894736842105263,-0.06671942810305612,0.013167683520822853,-0.9908688615791565,-0.11638529426543456,-0.005110627084970416,-0.0885142122507095,0.007189266469329188,-0.02941995,0.02941995000000108,8.81515845840001,1.0
488,215.721,0.6965174129353234,-0.06970464296398497,0.013646400397882254,-0.990709616992483,-0.11591298475781105,-0.004659693315625239,-0.07720900997519603,0.00960658926516752,-0.023928226000000535,0.02667408800000135,8.853051353999994,1.0
489,215.835,0.6952380952380952,-0.07334810630299146,0.01421579978624909,-0.990518551619288,-0.11522927930757912,-0.0038471344113350093,-0.0587531065940861,0.012986246418207816,-0.014984561200000196,0.02220225560000119,8.929072504799999,1.0
490,215.935,0.6782178217821783,-0.07604901199888449,0.014616334836752634,-0.9903952002412705,-0.11453131461252052,-0.0027853775103577907,-0.04567477564513741,0.015393468841910259,-0.00980665,0.018279595600001423,9.005093655599993,1.0
491,216.035,0.6802030456852792,-0.07778881253958081,0.014824813580952698,-0.9903577455853587,-0.11364268160113304,-0.0010461773290301292,-0.0386355572491894,0.016718700632452784,-0.00980665,0.014356935600001657,9.099237495599986,1.0
492,216.141,0.700507614213198,-0.07963300111271894,0.015045801049804767,-0.9903180436500922,-0.11270073060906231,0.0007973748631772016,-0.031173985749484465,0.01812344633042787,-0.00980665,0.010198916000001884,9.199029965999982,1.0
493,216.235,0.6683937823834197,-0.0808391358149656,0.015140187773572273,-0.9902974647786644,-0.11199947499888657,0.0011769065619446416,-0.028663972631096768,0.01387754403054698,-0.013101684400000126,0.009806650000001136,9.274345038000003,1.0
494,216.331,0.7253886010362695,-0.0820187411271672,0.015224232172826486,-0.9902782266005656,-0.11129959807427328,0.0014118913398123748,-0.026599868312478528,0.008873629197479424,-0.016867437999999152,0.009806650000001145,9.349660109999984,1.0
495,216.451,0.7464114832535885,-0.08354477279839133,0.015233373902628617,-0.9902139348832018,-0.11073740548696548,0.002813101280480204,-0.026225526630878064,0.003676824411377842,-0.01765197000000067,0.009806650000001155,9.43791995999999,1.0
496,216.536,0.7935779816513762,-0.08467680755455548,0.015144734806716608,-0.9901284862886182,-0.1106492338596779,0.004903874965384379,-0.028147775083780083,0.001045025703497516,-0.014317709000000357,0.009806650000001162,9.494602396999994,1.0
497,216.645,0.815,-0.08612847565363656,0.015031068201370621,-0.9900189110320347,-0.11053616671409736,0.007584984749555582,-0.030612776041030878,-0.0023298691101372136,-0.010042009600000009,0.009806650000001171,9.567289286800001,1.0
498,216.721,0.765,-0.08614363807861689,0.014682676620053237,-0.9900169406713804,-0.1105885579584079,0.009033715277910106,-0.008252239376308725,-0.0031976909749209205,-0.00980665,0.007060788000001443,9.606986605999996,1.0
499,216.835,0.6290322580645161,-0.08603819473825439,0.014125485816462967,-0.990023554796415,-0.11068401687444722,0.011152725297957612,0.028384469568728594,-0.004308454597368816,-0.00980665,0.0025889556000012817,9.665120427199998,1.0
500,216.926,0.6827956989247311,-0.08472965154735113,0.013498132626725477,-0.9901261576495037,-0.11078775812366898,0.01279337173327766,0.05806622989474956,-0.004832742316648479,-0.008825985000000891,1.1889585707529797e-15,9.70858349999999,1.0
501,217.035,0.7055555555555556,-0.07929056442468044,0.012169339611057614,-0.9905568106449364,-0.11099911156957895,0.014597762793302306,0.09499993854760654,-0.004314835544675666,-0.004550285600000544,1.1941947923373064e-15,9.751340493999994,1.0
502,217.128,0.6888888888888889,-0.07464987541176049,0.011035598781176083,-0.9909242485217733,-0.11117944065645623,0.01613728911057074,0.12651218537985448,-0.0038729517851026187,-0.000902211800000963,1.1986623942395292e-15,9.78782123199999,1.0
503,217.235,0.6666666666666666,-0.06733864748757823,0.00945482744414626,-0.9914013769053234,-0.1114478058252605,0.015822286739945384,0.1408836128711703,-0.00346339068934322,0.0,1.2001708103656573e-15,9.8001383844,1.0
504,217.333,0.6578947368421053,-0.06014786173926123,0.0079377129875242,-0.9918520096643203,-0.1117088680867377,0.015010583728551965,0.14855803501605894,-0.003113066338002743,0.0,1.2006415899209453e-15,9.803982591199999,1.0
505,217.435,0.6666666666666666,-0.05260781077698754,0.00640601473848999,-0.9922732857835068,-0.11199188355800414,0.013536328196525792,0.15305395376682301,-0.00355193075537667,0.0,1.2009682532858392e-15,9.80665,1.0
506,217.522,0.6440677966101694,-0.046081464433262914,0.005180321417395431,-0.992551153967768,-0.11225255149591476,0.011205155432224785,0.1509322016239171,-0.005296911813318364,0.0,1.2009682532858392e-15,9.80665,1.0
507,217.635,0.6411764705882353,-0.03760471573394139,0.0035883289428701192,-0.99291206321859,-0.11259112019687915,0.008177310347557592,0.14817636263370562,-0.007563381463288886,0.0,1.2009682532858392e-15,9.80665,1.0
508,217.718,0.6176470588235294,-0.03184628428933815,0.0025903022165178567,-0.9930732677600916,-0.1128100030994334,0.006700381147675547,0.142486362636091,-0.006923686979338847,0.0,1.2006463937939586e-15,9.8040218178,1.0
509,217.835,0.5862068965517241,-0.023886470715968895,0.0012411143368727525,-0.9932655360371558,-0.11310851719882112,0.004869928769767324,0.13323150074481985,-0.005246202901005797,0.0,1.2000843406514208e-15,9.7994323056,1.0
510,217.919,0.5872093023255814,-0.0183825053535945,0.0003173598185711428,-0.9933810334473934,-0.11332443774829691,0.0038207365279698136,0.1262510767377228,-0.00446741241197369,0.0,1.1998534102459364e-15,9.797546615737051,1.0
511,218.035,0.6167664670658682,-0.011849036606948997,-0.0007309848708056018,-0.9934263919101384,-0.11363072917876847,0.0037135695287237973,0.11491057721979601,-0.005546744599329882,0.0,1.2004084393988493e-15,9.802078772709162,1.0
512,218.139,0.608433734939759,-0.005991443937541193,-0.0016708801095574053,-0.9934670581181166,-0.11390533528884648,0.0036174887707790685,0.10474323282441081,-0.006514421732821886,0.0,1.2009060517428404e-15,9.806142085856575,1.0
513,218.235,0.572289156626506,-0.0016994231877913483,-0.0022548240797066145,-0.9934497981440623,-0.11412133657345966,0.003106539680932845,0.09348903596400987,-0.0055195996537802175,0.0,1.2005679305347438e-15,9.803381116666666,1.0
514,218.332,0.7605633802816901,0.0024608503255715234,-0.002799960650003066,-0.9934236861530382,-0.11433365615807145,0.002523442301113804,0.08182183060660543,-0.004215613787388016,0.0,1.200100083464187e-15,9.799560855421687,1.0
515,218.435,0.7426470588235294,0.006367098818415826,-0.0033020957104804606,-0.9933873681364769,-0.11456122742487759,0.00182989073405049,0.06923314791917905,-0.0037057194896041425,0.0,1.1997672850325534e-15,9.79684335,1.0
516,218.522,0.7647058823529411,0.008789994249096674,-0.003594716372662926,-0.9933419656320366,-0.11475707929090306,0.001116565050790243,0.0582575083076978,-0.0047744972873476855,0.0,1.1997672850325534e-15,9.79684335,1.0
517,218.638,0.781021897810219,0.012020521490005263,-0.0039848772555729755,-0.9932814289594495,-0.11501821511227041,0.00016546413977634733,0.043623322159052555,-0.006199534351006092,0.0,1.1997672850325534e-15,9.79684335,1.0
518,218.723,0.781021897810219,0.01335897034524932,-0.004106325568337091,-0.9932439440041642,-0.11518986825876143,-0.0007521457679337034,0.03464620922547316,-0.0064397984243692065,0.0,1.1997672850325534e-15,9.79684335,1.0
519,218.835,0.781021897810219,0.014877825693018175,-0.0042272286135854285,-0.9931961874017,-0.1154113605867428,-0.0020137340096161105,0.02323298171103087,-0.006565116536970533,0.0,1.1997672850325534e-15,9.79684335,1.0
520,218.924,0.7591240875912408,0.015826680780816914,-0.00429111742350498,-0.9931624057687509,-0.11558332190886994,-0.002665455242618826,0.014567385125903623,-0.006522631883621112,0.0,1.1998729702388426e-15,9.797706335200001,1.0
521,219.035,0.781021897810219,0.016029781117732293,-0.004248548323427188,-0.9931361040608377,-0.11578242284778523,-0.0021458800053223512,0.005293633615597265,-0.005930034475400992,0.0,1.2004062001433015e-15,9.8020604878,1.0
522,219.121,0.816793893129771,0.016187138135522625,-0.004215566858502044,-0.9931157261610132,-0.1159366812328908,-0.0017433262178673287,-0.0018914351221192803,-0.005470904951915025,0.0,1.2008193332224319e-15,9.8054339754,1.0
523,219.235,0.8625954198473282,0.015641044926787296,-0.004084430319357653,-0.9931016258782229,-0.1161336976596407,-0.0014900665692984707,-0.00993327672593472,-0.0051626891400664565,0.0,1.2013669747459302e-15,9.8099058078,1.0
524,219.321,0.8153846153846154,0.01501644151109202,-0.003960872283770499,-0.993094626969483,-0.11628022058448668,-0.001378004372119889,-0.015582207413391013,-0.005014815108850577,0.0,1.2017801078250603e-15,9.8132792954,1.0
525,219.435,0.7769230769230769,0.013975219192197333,-0.0037653576242185223,-0.9930880195754623,-0.11647010914968474,-0.001502171640221385,-0.022346682861388616,-0.00498302865484029,0.0,1.202169221539125e-15,9.81645665,1.0
