,time,img_sim,orientation.x,orientation.y,orientation.z,orientation.w,angular_velocity.x,angular_velocity.y,angular_velocity.z,linear_acceleration.x,linear_acceleration.y,linear_acceleration.z
0,200.274,1.0,-9.197102105106828e-05,0.0006666292122110274,-0.7075595470832702,-0.7066534047532667,0.0003831928228028133,-0.00032855685683898835,-0.00031731554493307943,0.0,-0.012474058799999271,9.80665
1,200.363,1.0,-9.395531302872037e-05,0.0006657286553527668,-0.7075568718584158,-0.7066560839954901,0.00037463512353133437,-0.0003203419274650494,-0.000316230215365072,0.0,-0.0098066499999988,9.80665
2,200.466,1.0,-9.73434322793253e-05,0.0006665832281858067,-0.7075535003504015,-0.706659458495716,0.00037255912413820634,-0.0003362713644746684,-0.00027834470430389215,0.0,-0.0098066499999988,9.80665
3,200.557,0.9979123173277662,-0.00010033681919005301,0.0006673382391353855,-0.7075505216394375,-0.7066624398502845,0.00037072498875204526,-0.00035034494474529837,-0.00024487303919159794,0.0,-0.0098066499999988,9.80665
4,200.656,0.9979123173277662,-0.00010270656505948927,0.000666983025277343,-0.7075473926112779,-0.7066655727892532,0.0003689285560976715,-0.0003483876565005639,-0.00024863107409328036,0.0,-0.0098066499999988,9.80665
5,200.755,1.0,-0.0001045913444022211,0.0006659843586242873,-0.7075443245856596,-0.7066686452915866,0.00036724092171061816,-0.0003369868726003936,-0.00027435831585898533,0.0,-0.0098066499999988,9.80665
6,200.862,1.0,-0.00010654158105150724,0.0006651170207039271,-0.7075408858688299,-0.7066720887926026,0.0003670417191460717,-0.00032782242051325667,-0.00029454554896801927,0.0007845319999992865,-0.010591181999998086,9.80665
7,200.97,1.0,-0.00010812872425850558,0.0006651725231421206,-0.707536875974065,-0.7066761032779256,0.00037397461757063776,-0.00033243628102354653,-0.00028146915137767955,0.005021004799999447,-0.014827654799998247,9.80665
8,201.072,1.0,-0.0001096276928428929,0.0006652249421115256,-0.7075330888512316,-0.7066798947362863,0.0003805223549716168,-0.00033679381594993137,-0.00026911922032013655,0.009022117999999598,-0.0188287679999984,9.80665
9,201.163,1.0,-0.00011179560044014853,0.0006651827618776577,-0.7075298404138158,-0.7066831467620641,0.0003867005436932819,-0.0003354378831347511,-0.00028161788730123537,0.006999101008064489,-0.0196132999999988,9.80665
10,201.262,1.0,-0.00011440863180165053,0.0006651096155698671,-0.7075263463213256,-0.7066866446726896,0.00039352501616738095,-0.00033235584381937765,-0.000302422140638583,0.0030843495967744286,-0.0196132999999988,9.80665
11,201.358,1.0,-0.00011681399924083153,0.0006649496712910977,-0.7075229390531658,-0.7066900557508968,0.00039991188007759384,-0.00033163031355841504,-0.00031289690943152825,0.0,-0.0196132999999988,9.80665
12,201.453,1.0,-0.0001186433585992853,0.0006644096815037247,-0.7075194855561453,-0.7066935134797433,0.00040524247157168507,-0.0003406170134588451,-0.0002816711424662558,0.0,-0.0196132999999988,9.80665
13,201.554,1.0,-0.00012058825644353614,0.0006638355870982019,-0.7075158139435235,-0.7066971895914642,0.00041090973200224516,-0.00035017129440561814,-0.0002484732217979134,0.0,-0.0196132999999988,9.80665
14,201.657,1.0,-0.00012273150352385618,0.0006626605302687225,-0.7075123306190844,-0.7067006776605883,0.00042922511410183376,-0.00034719566996413393,-0.000254482721823613,0.0,-0.0196132999999988,9.80665
15,201.762,1.0,-0.0001250077122190071,0.0006611257086498851,-0.7075089288128076,-0.706704084393115,0.000455060295678999,-0.0003368934079359085,-0.0002833913131181001,0.0,-0.0196132999999988,9.80665
16,201.847,0.9979123173277662,-0.0001268080902372283,0.000659918019548616,-0.7075061615123928,-0.7067068556669088,0.0004736074688844393,-0.0003301651665242379,-0.0003066904336446884,0.0,-0.0196132999999988,9.80665
17,201.967,1.0,-0.0001283950608203395,0.0006589987907197634,-0.7075019507600706,-0.7067110717003247,0.0004463248769752681,-0.000357071592588909,-0.0003372550854692235,0.0,-0.0196132999999988,9.80665
18,202.065,0.9979123173277662,-0.00012969108679654673,0.0006582480871762006,-0.7074985119790076,-0.7067145147942808,0.00042404409358278263,-0.00037904517387505287,-0.00036221621779258903,0.0,-0.0196132999999988,9.80665
19,202.166,1.0,-0.00013062690301715818,0.0006579832589716434,-0.7074958029224583,-0.7067172269204754,0.0004121515229344381,-0.0003897870511282226,-0.00033435103367083526,0.0,-0.016710531599999433,9.80665
20,202.264,1.0,-0.0001313933528585409,0.0006579064458855572,-0.707493469943362,-0.7067195623911546,0.00040453137736767554,-0.00039599539269693184,-0.0002883410523645593,0.0,-0.012866324799998916,9.80665
21,202.358,0.9979123173277662,-0.00013244816819100457,0.0006578453877924066,-0.7074912581107422,-0.7067217765055962,0.00040315866842865686,-0.0003972125065047315,-0.00025361684593371936,0.0,-0.0098066499999988,9.80665
22,202.469,0.9979123173277662,-0.00013553385598427683,0.0006578459348345258,-0.7074887954945281,-0.7067242411942155,0.0004357115335296784,-0.0003713757352670699,-0.00026677022641524446,0.0,-0.0098066499999988,9.80665
23,202.564,1.0,-0.00013817475995149203,0.0006578464030237269,-0.7074866878500206,-0.7067263506124032,0.0004635720937512756,-0.00034926318330690735,-0.00027802762412465867,0.0,-0.0098066499999988,9.80665
24,202.658,1.0,-0.00014033639493229614,0.0006577835786444445,-0.707484391749367,-0.7067286488012019,0.0004488809854701319,-0.00033788862095522545,-0.00028981697577259345,0.0,-0.012385291035854604,9.80665
25,202.767,1.0,-0.00014262087520634505,0.0006576795953332943,-0.7074816256263634,-0.7067314175094477,0.000411056925494417,-0.0003298669168771991,-0.00030380759116418023,0.0,-0.016643955776891206,9.80665
26,202.86,0.9979123173277662,-0.00014460961999677335,0.0006576535677542489,-0.707479032788161,-0.7067340127167733,0.0003835317890541276,-0.00032479532626850316,-0.00032069943094885096,0.0,-0.018943769678712766,9.80665
27,202.959,0.9979123173277662,-0.00014691513292260384,0.0006579242136407116,-0.7074751650021044,-0.7067378838022611,0.0003768207690487782,-0.00032783243756079274,-0.00036226146705785366,0.0,-0.015044740160641258,9.80665
28,203.05,1.0,-0.00014903434177362018,0.0006581729891525107,-0.7074716097644159,-0.70674144207276,0.00037065205369032455,-0.00033062412571835246,-0.00040046495479441915,0.0,-0.011460783734938465,9.80665
29,203.159,1.0,-0.00015163731128141957,0.0006589984768541605,-0.7074682033034216,-0.7067448507179056,0.00038656486847239127,-0.0003383205305919571,-0.0003830054128518334,0.0,-0.0098066499999988,9.80665
30,203.257,1.0,-0.0001540139913601105,0.0006600379617347165,-0.7074656208102575,-0.7067474343583902,0.00041400474294212074,-0.00034769332872322127,-0.0003316769315384308,0.0,-0.0098066499999988,9.80665
31,203.375,1.0,-0.00015657959810172508,0.0006610525507274197,-0.7074620909485755,-0.7067509662809166,0.00044422934923610247,-0.0003471005927359493,-0.0003024490761887837,0.0,-0.0098066499999988,9.80665
32,203.466,1.0,-0.00015799398537669757,0.000661383367717203,-0.7074585679207439,-0.7067544921924495,0.0004621743187688628,-0.00032401185070416876,-0.0003419751557660653,0.0,-0.0098066499999988,9.80665
33,203.558,1.0,-0.0001594239153689771,0.0006617178200585223,-0.7074550061783207,-0.7067580568502628,0.00048031648576901133,-0.0003006693862324846,-0.00038193558786616386,0.0,-0.0098066499999988,9.80665
34,203.66,1.0,-0.00016132150901304064,0.0006624256616691925,-0.7074517460663853,-0.7067613190668184,0.00046742687025107916,-0.0002914104263763877,-0.00036614230438136296,0.0,-0.012474058799998158,9.80665
35,203.754,1.0,-0.00016321414545462226,0.0006632332870793939,-0.7074490590268658,-0.7067640075262813,0.0004403405913617526,-0.0002905362306628379,-0.0003238958439324151,0.0,-0.016161359199997925,9.80665
36,203.856,1.0,-0.00016514307609090617,0.0006638619538830433,-0.7074460682701419,-0.7067670001463536,0.00041428262693807576,-0.0002938465166371262,-0.00028669252246617954,-0.0005491723999992775,-0.019064127599999522,9.80665
37,203.958,1.0,-0.0001662876674594854,0.0006629336952443033,-0.7074426058774799,-0.7067704664298738,0.0004091782777104534,-0.0003239269137848126,-0.0003037888619583075,-0.004550285599999429,-0.01506301439999937,9.80665
38,204.061,1.0,-0.00016744348031207034,0.0006619963360306736,-0.7074391095397916,-0.7067739666965658,0.0004040238858433443,-0.0003543022167868895,-0.0003210528126219277,-0.008590625399999769,-0.011022674599999031,9.80665
39,204.156,1.0,-0.0001687471668323301,0.0006617746932670078,-0.7074360341391065,-0.7067770448689651,0.0004172694319859131,-0.0003654293117579071,-0.0003164564012549828,-0.007296147600000276,-0.0098066499999988,9.80665
40,204.274,1.0,-0.00017050946090885953,0.0006618861941550331,-0.7074323040394913,-0.706780777898665,0.00044455115729942637,-0.00036908918037079243,-0.0002984017417766172,-0.0026674088000004726,-0.0098066499999988,9.80665
41,204.366,1.0,-0.00017206670272567465,0.0006620244455098641,-0.7074294665196856,-0.7067836175270127,0.0004554787983253325,-0.0003706949589768447,-0.0002930269266322885,0.0,-0.010744337649401314,9.80665
42,204.474,1.0,-0.0001745042740588156,0.0006623574302359617,-0.7074263706507489,-0.7067867152860333,0.0004339056579763485,-0.0003684301169791384,-0.0003156599686555244,0.0,-0.014963932071711518,9.80665
43,204.569,1.0,-0.00017664843402778263,0.0006626503334672512,-0.7074236474327027,-0.7067894401666533,0.00041492928452121965,-0.000366437894851526,-0.0003355686630278195,0.0,-0.018675612350596286,9.80665
44,204.657,0.9979123173277662,-0.00017810071098593383,0.0006632888910768461,-0.7074209424370587,-0.7067921466048603,0.00038714270966416206,-0.0003528442827240705,-0.00034927349399397066,0.0,-0.01711279960159164,9.80665
45,204.756,0.9979123173277662,-0.0001795092867598059,0.000664162196379592,-0.7074178223518689,-0.7067952682717983,0.0003515761186771319,-0.00033259520340113343,-0.0003626930461992405,0.0,-0.01324483804780726,9.80665
46,204.856,1.0,-0.00018102186107057824,0.0006650508019722435,-0.7074147755758967,-0.7067983165167396,0.00032440063096733087,-0.0003193455725728022,-0.00036886159092142833,0.0,-0.0098066499999988,9.80665
47,204.955,1.0,-0.00018317104345938793,0.0006659775592248163,-0.7074125202988517,-0.7068005723132937,0.00036102452459970796,-0.0003585293666072861,-0.0003213420353741562,0.0,-0.0098066499999988,9.80665
48,205.055,1.0,-0.00018534193476121537,0.0006669136776617582,-0.7074102422412305,-0.7068028508956717,0.00039801835655159525,-0.0003981089565410987,-0.00027334248431631696,0.0,-0.0098066499999988,9.80665
49,205.166,1.0,-0.0001877007270481763,0.0006677233591702449,-0.7074072402485578,-0.7068058540566673,0.00041042869419270165,-0.0003912439152752419,-0.00027797708341000763,0.0,-0.0098066499999988,9.80665
50,205.262,1.0,-0.00018971875408205956,0.0006683244199531445,-0.7074044392392352,-0.7068086563297687,0.00040877155233614567,-0.00036333971262697,-0.00030702932079608436,0.0,-0.0098066499999988,9.80665
51,205.363,0.9979123173277662,-0.00019194571338399134,0.0006688378926498112,-0.70740148066354,-0.7068116163150472,0.00040970383523510886,-0.0003399406281688253,-0.0003322012898529152,0.0,-0.0098066499999988,9.80665
52,205.457,0.9979123173277662,-0.0001944957987277972,0.000668769021125881,-0.707398673422448,-0.7068144252358464,0.000422876453482421,-0.0003455645533896951,-0.00033082591140216693,0.0,-0.0098066499999988,9.80665
53,205.555,0.9979123173277662,-0.00019715439834155273,0.000668697218898805,-0.7073957467242882,-0.70681735368519,0.00043660960867642997,-0.00035142779457741154,-0.0003293920062088333,0.0,-0.0098066499999988,9.80665
54,205.66,1.0,-0.00020077238168100407,0.0006695847886189316,-0.7073927956472097,-0.7068203052930061,0.0004482455961406238,-0.0003573276696261023,-0.0003314960160059857,0.0,-0.0098066499999988,9.80665
55,205.763,0.9979123173277662,-0.0002047495618424704,0.000670992062860743,-0.707390003524847,-0.706823097187396,0.0004579474066849813,-0.00036290254211053345,-0.0003355852910317486,0.0,-0.0098066499999988,9.80665
56,205.858,1.0,-0.00020813554398890492,0.0006721101392724587,-0.7073874230977842,-0.7068256776489499,0.00046442099012048495,-0.0003654632214837101,-0.00033773441946939034,0.0,-0.0098066499999988,9.80665
57,205.972,1.0,-0.00021039206132927255,0.0006723005031177983,-0.7073842935064414,-0.7068288088481276,0.00045635128431801246,-0.00035201639956905804,-0.0003299291624336963,0.0,-0.0098066499999988,9.80665
58,206.07,1.0,-0.00021233187448151802,0.0006724641492304587,-0.7073816031559887,-0.7068315005807541,0.00044941416880360757,-0.0003404568509055874,-0.00032321938006967985,0.0,-0.0098066499999988,9.80665
59,206.169,1.0,-0.0002142468446477816,0.0006732099815652778,-0.7073786502716328,-0.7068344544487962,0.0004222674062475504,-0.0003479562350548828,-0.00031674103229306524,0.0,-0.012748644999999469,9.80665
60,206.262,1.0,-0.00021603233786404128,0.0006740851186776696,-0.7073758056830874,-0.7068372998373833,0.0003907120386138537,-0.00036076579964719805,-0.0003107454639393832,0.0,-0.01639671879999905,9.80665
61,206.359,1.0,-0.00021802813022724727,0.0006749058514953683,-0.7073728330224345,-0.7068402733702555,0.00036359465804942497,-0.00037801700701464453,-0.00030921674002574404,0.0005931441532263457,-0.0196132999999988,9.80665
62,206.474,1.0,-0.00022125952685459732,0.000675282335018975,-0.7073692716348364,-0.706843836036702,0.00036900450152555235,-0.00042368544335100953,-0.00033802570584567736,0.005140582661289752,-0.0196132999999988,9.80665
63,206.558,1.0,-0.0002236198513476187,0.0006755573316796964,-0.7073666702734603,-0.7068464383321934,0.0003729560393689853,-0.0004570432577184482,-0.0003590687765315461,0.00846218991935414,-0.0196132999999988,9.80665
64,206.666,1.0,-0.0002266164923852711,0.00067674157192082,-0.7073633386587471,-0.7068497702834755,0.0003909693450659523,-0.000451988398549205,-0.0003469483108274604,0.0069154464143429874,-0.0196132999999988,9.80665
65,206.775,1.0,-0.00022962323028256982,0.0006783219718601854,-0.7073599822206751,-0.7068531266603816,0.00041514653742658677,-0.0004246546870628088,-0.0003165492432681719,0.0026567816733063833,-0.0196132999999988,9.80665
66,206.861,1.0,-0.00023185992661333354,0.0006794480608747016,-0.7073573458753918,-0.7068557630930868,0.000430964672472328,-0.0004042571682948618,-0.00029955251514911653,0.0,-0.018907221199998773,9.80665
67,206.959,0.9979123173277662,-0.00023382500758052305,0.000680211107590876,-0.7073543926964903,-0.7068587169557047,0.00043496697046794056,-0.0003860438950359796,-0.00031026624422520545,0.0,-0.015063014399998256,9.80665
68,207.059,0.9979123173277662,-0.00023583019224092015,0.000680989726689013,-0.7073513792486315,-0.7068617311012331,0.0004390509480144832,-0.00036745892232283804,-0.00032119862083345737,0.0,-0.011140354399998479,9.80665
69,207.154,1.0,-0.00023752368124985818,0.0006816113943697516,-0.7073488379587373,-0.7068642729753762,0.00043784389866050304,-0.00037559135409537877,-0.0003299189452081924,0.0,-0.0098066499999988,9.80665
70,207.259,1.0,-0.00023926517720989602,0.0006822257944463755,-0.7073462272152891,-0.7068668843161904,0.0004333760596346111,-0.0004004665813408785,-0.000338531211018562,0.0,-0.0098066499999988,9.80665
71,207.365,1.0,-0.0002413410857638614,0.0006826314530067903,-0.7073435736386766,-0.7068695385920375,0.0004273688157554694,-0.00041676826565526106,-0.0003444820647127917,0.0,-0.010669635199999576,9.80665
72,207.464,0.9979123173277662,-0.0002444132888005655,0.0006822450762528111,-0.7073410312203341,-0.706872082006418,0.0004164204387925555,-0.0004005750269861877,-0.00034025674941949504,0.0,-0.014553068599999166,9.80665
73,207.564,0.9979123173277662,-0.0002475165241911759,0.0006818547967033371,-0.7073384631209984,-0.706874651111853,0.00040536147216334897,-0.0003842182202497492,-0.00033598875417374056,0.0,-0.018475728599998943,9.80665
74,207.668,1.0,-0.0002501503156598163,0.0006813083042424579,-0.7073355891750214,-0.7068775265218288,0.00039400843670591524,-0.0003871430875733513,-0.00032812012941576385,0.0,-0.0196132999999988,9.80665
75,207.76,1.0,-0.000252277175591728,0.0006807767756021792,-0.7073329773598268,-0.706880139774959,0.00038401608960702996,-0.0003965495862066748,-0.0003199862178880719,0.0,-0.0196132999999988,9.80665
76,207.86,1.0,-0.00025434627806397795,0.0006804472075377905,-0.7073300646477225,-0.7068830539317736,0.00037722243345342894,-0.0004072315446101161,-0.0003180741536198261,0.0006668522000009544,-0.018946447799997844,9.80665
77,207.958,1.0,-0.0002552127417491643,0.0006813117013303078,-0.707326857162084,-0.7068862622673743,0.0003900268755387527,-0.0004198888828977955,-0.00034935424628202154,0.004511059000000357,-0.015102240999998443,9.80665
78,208.057,1.0,-0.0002560880469005261,0.000682185016488055,-0.7073236169470002,-0.7068895033410932,0.00040296197519637625,-0.00043267537769861505,-0.0003809535235632206,0.008394492399999946,-0.011218807599998853,9.80665
79,208.168,1.0,-0.0002597901491591837,0.0006802748662029914,-0.7073201628973544,-0.7068929599528067,0.0004120544188134824,-0.0004348555694810953,-0.00038242072401945064,0.006888004166666113,-0.012725295833332687,9.80665
80,208.266,0.9665970772442589,-0.0002642116602082716,0.0006773639794767678,-0.7073171891989237,-0.706895936591024,0.0004177890796055423,-0.0004316288310321168,-0.0003693234214710728,0.003074306944444628,-0.01653899305555417,9.80665
81,208.36,0.9373695198329853,-0.0002681439230617101,0.0006750152220905793,-0.7073143111247899,-0.7068988171740422,0.00042421647794394667,-0.00042744585927369125,-0.00035972105134503946,0.0,-0.0196132999999988,9.80665
82,208.474,0.9793388429752066,-0.00027094059795321613,0.0006749983025925383,-0.7073106562158402,-0.7069024731398208,0.00043793113042239887,-0.00041542398579505084,-0.00036698406338766783,0.0,-0.0196132999999988,9.80665
83,208.561,0.9958677685950413,-0.00027307490247568207,0.0006749853903440333,-0.7073078669432207,-0.7069052632189676,0.0004483975757349062,-0.0004062493981402951,-0.0003725268883675707,0.0,-0.0196132999999988,9.80665
84,208.666,0.9876288659793815,-0.0002755075292298029,0.0006748933972037336,-0.707304493277186,-0.7069086379236494,0.00043844180984888085,-0.00039038535987492525,-0.00035949012998025704,0.0,-0.0196132999999988,9.80665
85,208.776,0.9834368530020704,-0.0002779902069369139,0.0006747619339321341,-0.7073009556068458,-0.7069121767120621,0.00041763901233207035,-0.00037156559957656653,-0.0003367736252257556,0.0,-0.0196132999999988,9.80665
86,208.863,0.9958592132505176,-0.00027039732303339763,0.0006743802764518073,-0.7072969870760853,-0.7069161500060437,-0.00012503783451420366,0.00018059479189132987,-0.0004818104510196366,0.0,-0.0196132999999988,9.80665
87,208.971,0.9958592132505176,-0.00022122999727777526,0.0006727517207095413,-0.7072871927293343,-0.7069259663967477,-0.002987070515286557,0.003100361003308013,-0.001339725959580506,0.0,-0.0196132999999988,9.80665
88,209.058,0.9875776397515528,-0.00018162298486353035,0.0006714398285838272,-0.707279302838896,-0.7069338740448148,-0.00529259684146391,0.005452394895837735,-0.0020308245636988707,0.0,-0.0196132999999988,9.80665
89,209.157,0.7655601659751037,0.0012024711270176075,0.00023740611300649886,-0.7072916771415418,-0.706916538890954,-0.006276396270841379,0.010452776260675353,-0.0010408583339299512,0.005021004800001677,-0.007060787999994598,9.881965072000025
90,209.262,0.6173361522198731,0.003447109047528823,-0.0004738145745357402,-0.7073171862295504,-0.7068828791860033,-0.00636874514631928,0.01710413387790393,0.0010394449848683874,0.013258590800000873,0.013533177000003407,10.005528862000013
91,209.357,0.5560253699788583,0.005108173252065609,-0.0010163131916332232,-0.7073353792453646,-0.70685886171459,-0.005299235507845063,0.019612930953500782,0.0024827874873297974,0.018514955199999215,0.027772432800000066,10.177733636000056
92,209.457,0.569620253164557,0.004604504538798068,-0.0009723321783214649,-0.7073247690774598,-0.7068727801909571,0.0028489802032712636,0.0008825721740714568,0.001329480952350373,0.010669635199999661,0.016004452800000804,10.726906036000024
93,209.558,0.5836820083682008,0.004095799138397827,-0.0009279113548765871,-0.707314052807876,-0.706886837852088,0.011078678071499148,-0.018035090193153067,0.00016464135202109813,0.002745861999999731,0.004118793000000981,11.281570160000019
94,209.66,0.5794979079497908,0.003018343266808586,-0.0007062670578434236,-0.7073104479520024,-0.7068946078751084,0.014211143907159598,-0.021796623956411774,-0.0002199222873896313,0.0,1.384533848864071e-15,11.305576839199983
95,209.783,0.5746887966804979,0.0013639532056251634,-0.00032762726811203164,-0.707310647511045,-0.7068999291053157,0.014726257510483256,-0.016667171828448867,-0.00018486976972780983,0.0,1.3467177605046094e-15,10.996785044000006
96,209.857,0.5687103594080338,0.00037663145574126904,-0.0001308134109277117,-0.70731083461012,-0.7069021588132892,0.01494770333097844,-0.01453291850128033,-0.00013858972713075342,0.0,1.3220070144993493e-15,10.795006490196046
97,209.964,0.587737843551797,-0.0010013925613443406,-3.824678820593315e-05,-0.7073115205810098,-0.706899361419972,0.014719723720176551,-0.017344866598061434,8.443842457114131e-05,0.0,1.2741331231477833e-15,10.4040865009804
98,210.069,0.5953878406708596,-0.002353659120166545,5.258961726870107e-05,-0.7073121937300136,-0.7068966163143803,0.014496005410511166,-0.020104254917332358,0.0003032978257739153,0.0,1.227154070886905e-15,10.020473427451062
99,210.165,0.5532359081419624,-0.003244386988904192,0.0002049280906537794,-0.7073208937190654,-0.706884592204158,0.011606981449693025,-0.01738589731749321,0.0006300769120452282,0.0,1.1981513480738676e-15,9.783648223374016
100,210.265,0.5693581780538303,-0.0040163940395308555,0.0003948539463278346,-0.7073336012887783,-0.706867777371021,0.007387227577544062,-0.012191159446247461,0.0010275876643353295,0.0,1.1742296227035395e-15,9.588312511991898
101,210.367,0.6197478991596639,-0.004673734830416347,0.0005497617447625237,-0.7073422720986061,-0.7068555309100149,0.0040411253031343245,-0.007452302823774623,0.0010301892766729531,0.0,1.1534531453128384e-15,9.418659699400003
102,210.47,0.6197478991596639,-0.004886251689186154,0.0005715546300917784,-0.7073361450753325,-0.7068601760182195,0.00398516175150871,-0.004608545800670849,-0.0003644839338958904,0.0,1.1450415636668238e-15,9.349973922799997
103,210.573,0.6070686070686071,-0.005098768547955961,0.000593347515421033,-0.7073300180520589,-0.7068648211264241,0.003929198199883096,-0.0017647887775670756,-0.0017591571444647337,0.0,1.136629982020809e-15,9.28128814619999
104,210.668,0.6808510638297872,-0.005124661818247467,0.0005930627928867346,-0.7073257587629681,-0.7068689102530192,0.0027345384633912636,-0.00048456609942958595,-0.0016961998855360679,0.0,1.1345609290334319e-15,9.264393046414341
105,210.773,0.6730769230769231,-0.005099922385633404,0.0005863542404911171,-0.707321487689077,-0.706873368589484,0.0010556030896282879,0.0005092838124197542,-0.0012033978408477165,0.0,1.1340585319553643e-15,9.260290662948206
106,210.874,0.6987179487179487,-0.005016576764235065,0.0005678579024238611,-0.7073214950275917,-0.7068739485661086,-0.0007561744133712972,0.0016457172948492575,-0.0008204131074863195,0.0,1.1346931337340289e-15,9.265472579718875
107,210.961,0.7061310782241015,-0.004817432447131775,0.0005261693388644943,-0.7073303032522832,-0.7068665170609688,-0.002737697010629253,0.0030105264949050066,-0.0006852231136182578,0.0,1.1376304416306203e-15,9.289457518875507
108,211.062,0.7716701902748414,-0.004586241918080879,0.00047777227082432017,-0.7073405288924424,-0.7068578896814388,-0.005038085313192603,0.004594960163934911,-0.0005282784080932996,0.0,1.141040419763444e-15,9.31730210341366
109,211.159,0.7431578947368421,-0.00430156509953364,0.0003994048186290441,-0.707341368970539,-0.7068588157585904,-0.005496088840230661,0.0051897508203538004,-0.0004893391106956717,0.0,1.1452308860247764e-15,9.351519857171313
110,211.262,0.7365145228215768,-0.0039665325085822545,0.0002995206040171314,-0.7073375663235435,-0.7068646146654511,-0.005066923698803686,0.005336790245427083,-0.000506430388469087,0.0,1.1501591621239178e-15,9.391762285458169
111,211.357,0.7214137214137214,-0.0036494775092830866,0.00020562436337372896,-0.7073352656819122,-0.7068687386045556,-0.004750715394740005,0.00549127084640674,-0.00046522411341071775,0.0,1.154651393300683e-15,9.428444136746988
112,211.466,0.7401247401247402,-0.003221858879190117,8.384393933683212e-05,-0.707342201963282,-0.7068637521595378,-0.005019798246492851,0.00581820290834912,3.416718116566481e-05,0.0,1.159382918828689e-15,9.4670799746988
113,211.565,0.7759336099585062,-0.0028334713160782267,-2.6763968733356242e-05,-0.707348501888563,-0.70685922318654,-0.005264194598084839,0.006115141203140767,0.0004877427606432118,0.0,1.1636803594458682e-15,9.502171240361447
114,211.667,0.7770833333333333,-0.0024625901236795034,-8.35924220186315e-05,-0.7073446992520543,-0.7068643765606503,-0.004864732498242452,0.00632572543572605,0.0014083485324428414,0.0,1.1677902847926258e-15,9.535731327642278
115,211.764,0.7666666666666667,-0.002120949349420312,-0.00011605175389867311,-0.7073371942834356,-0.7068729870287039,-0.004238812824544564,0.0064899641187574,0.002455071809254991,0.0,1.1715787049737227e-15,9.566666126016264
116,211.867,0.7828810020876826,-0.0017699031648836508,-0.00015325160070430154,-0.7073314297844503,-0.7068797866658998,-0.003729460552870121,0.006326525593103284,0.002749328966725737,0.0,1.1754405855713103e-15,9.598200774212595
117,211.97,0.7682672233820459,-0.001451866338306416,-0.0001981435516314414,-0.7073318710921959,-0.7068799899615464,-0.0036572042181647903,0.005212140438242219,0.0007432859920801205,0.0,1.1788496332509134e-15,9.626037761023623
118,212.074,0.8004158004158004,-0.0011307417755488055,-0.00024347134674234188,-0.7073323166844827,-0.7068801952309374,-0.003584246365646783,0.004086936010032937,-0.0012822331279504955,0.0,1.1822917784808042e-15,9.654145009842525
119,212.176,0.8144329896907216,-0.0008833971323031819,-0.0002692226772928274,-0.7073295776911154,-0.7068832605396421,-0.0027018640861954948,0.003577813687938409,-0.0014928708115474042,0.0,1.1845231222637537e-15,9.672365314541832
120,212.255,0.8467908902691511,-0.0007045970877734196,-0.0002856339126971033,-0.7073268563490283,-0.7068861756722267,-0.0018652811357974294,0.0032957867177507614,-0.001320530168816036,0.0,1.186035098232034e-15,9.684711535258964
121,212.367,0.7950310559006211,-0.00046833259107626564,-0.0003089956628126599,-0.7073279014684846,-0.7068853608732512,-0.0008884524367749785,0.0027189771863632907,-0.0006611305586995517,0.0,1.1880746581185623e-15,9.701365805599998
122,212.469,0.8057851239669421,-0.0003173343715120202,-0.00033062618146624285,-0.7073471209696004,-0.7068661856331644,-0.0007782946852967194,0.001534326083026882,0.0014857940431683247,0.0,1.1895446432605841e-15,9.7133691452
123,212.566,0.8577319587628865,-0.00017373802545581903,-0.00035119638057798456,-0.7073653983383087,-0.7068479503558269,-0.0006735368235968014,0.00040774611220690876,0.003527477242983954,0.0,1.190942570307409e-15,9.7247840858
124,212.665,0.869653767820774,-0.00011838066247740032,-0.00033198150855915244,-0.7073621205233989,-0.7068512600098915,0.0002221895381807438,-0.00018487469293174602,0.003056364046642662,0.0,1.1920330494813924e-15,9.733688524
125,212.758,0.8724279835390947,-0.00010187117409524193,-0.0002982826591502709,-0.7073505059090088,-0.706862900206106,0.0013706159824506798,-0.0005247342071962009,0.0016194963391170081,0.0,1.1929265698618374e-15,9.740984671600001
126,212.867,0.8533057851239669,-8.3269762874107e-05,-0.00026479730159710124,-0.7073409820258924,-0.7068724481231023,0.002235235347380813,-0.0008258909687407408,0.00028735262832237367,0.0,1.1939746630558613e-15,9.749543002008032
127,212.966,0.8755186721991701,-6.906303282644297e-05,-0.0002559744780225953,-0.7073470183318002,-0.7068664122784255,0.001291517619334282,-0.0007503974727395997,0.0003414554727155346,0.0,1.1949296498596791e-15,9.757341061044178
128,213.068,0.8858921161825726,-5.4425795807639704e-05,-0.00024688429615795423,-0.707353237556069,-0.7068601935293646,0.0003192023843773899,-0.0006726162950414657,0.0003971977972418136,0.0,1.195913575657552e-15,9.7653754248996
129,213.166,0.8757763975155279,-7.408092299097285e-05,-0.0002245790515839909,-0.7073537137756256,-0.7068597210987677,-0.000450616074626201,-0.0008851183145972234,0.00013476746555949974,0.0,1.1965075140593489e-15,9.7702253
130,213.263,0.8840579710144928,-0.00010558731461860144,-0.00019765058601315836,-0.7073522196079631,-0.70686122020781,-0.0011538302373198678,-0.0011981165596461518,-0.00023792695765947094,0.0,1.1969697915219234e-15,9.774000081944445
131,213.365,0.9134020618556701,-0.0001405669424178665,-0.00016808833343853367,-0.7073506326525956,-0.7068628107189833,-0.0017127416799794827,-0.0014300060745545489,-0.0005359992313144446,0.0,1.1974569886738227e-15,9.777978348594377
132,213.46,0.934020618556701,-0.0001806696945537212,-0.0001354864851210315,-0.7073490904487468,-0.7068643495609062,-0.0014987022178359632,-0.0012503374460523444,-0.00043184322190010214,0.0,1.1979151894130282e-15,9.781719841566265
133,213.571,0.9504132231404959,-0.0002275265944177162,-9.739379919216355e-05,-0.7073472885053025,-0.7068661475762055,-0.0012486140041735546,-0.001040408838012943,-0.000310145147742301,0.0,1.198450560803047e-15,9.786091480722892
134,213.658,0.85625,-0.00027466301459143914,-0.00010979110912339564,-0.7073397098159778,-0.7068737099078625,-0.0007558310964698529,-0.0008746088369734895,-0.0012850729285726159,0.0,1.1985663167792674e-15,9.7870367
135,213.766,0.8833333333333333,-0.00033810049787403603,-0.00014516293714903622,-0.7073273856789528,-0.7068860074591636,-3.757187169106885e-06,-0.0006681916397157899,-0.003001485862193892,0.0,1.1985663167792674e-15,9.7870367
136,213.864,0.8479166666666667,-0.00039656802615863063,-0.00017680361417676132,-0.7073181320279068,-0.7068952323487334,0.0004369137647201128,-0.0005194615171809178,-0.0039990207207606775,0.0,1.198653483829909e-15,9.787748472983871
137,213.962,0.8979166666666667,-0.0004590528257617722,-0.00020641770570987674,-0.7073174533198847,-0.706895861684642,-0.00019693299151590001,-0.0005421730447485422,-0.0025078846834556442,0.0,1.199128059994514e-15,9.791623681451613
138,214.058,0.8295218295218295,-0.0005202624253730247,-0.0002354274280280362,-0.7073167884630468,-0.7068964781769607,-0.0008178440996655836,-0.0005644210717535664,-0.0010471799938504313,0.0,1.19959295093127e-15,9.795419804032258
139,214.158,0.9043659043659044,-0.000598192632473103,-0.0002539152259608582,-0.7073127344941613,-0.7069004627465153,-0.0007962598289137078,-0.0008878143164755526,-0.0007121280154335478,0.0,1.1997672850325534e-15,9.79684335
140,214.265,0.8651452282157677,-0.0006901066477122823,-0.00026663677706704396,-0.7073063735990032,-0.7069067379369539,-0.00037089146664871407,-0.0014145389274392939,-0.0010677563588680013,0.0,1.1997672850325534e-15,9.79684335
141,214.356,0.890495867768595,-0.000767576240689366,-0.00027544167283494403,-0.707300617646699,-0.7069124199824488,9.596199390985287e-05,-0.0017856346713528723,-0.0012403972791489486,0.0,1.1998203398549876e-15,9.797276575502007
142,214.461,0.9047619047619048,-0.0008510878371960443,-0.0002686973862252374,-0.7072910708286803,-0.7069218729828325,0.0015165264682938094,-0.0015687901095625236,-0.00035028908416675033,0.0,1.2003267722509516e-15,9.801411909839358
143,214.568,0.9192546583850931,-0.000936190130779025,-0.00026182463701344245,-0.7072813421665087,-0.7069315060403663,0.002964149313618153,-0.0013478151751666841,0.0005567735526244698,0.0,1.2008428509782673e-15,9.8056260124498
144,214.667,0.8716356107660456,-0.0009970511343340423,-0.00026354431587576597,-0.7072929048858738,-0.7069198527528681,0.0031964482546624332,-0.0012905098325331724,0.0015768575425486777,0.0,1.2009682532858392e-15,9.80665
145,214.769,0.9041666666666667,-0.0010531957650109747,-0.0002682805988117619,-0.7073123641012403,-0.706900299450047,0.0030295317083508,-0.001285465026044275,0.0026942133936898338,0.0,1.2009682532858392e-15,9.80665
146,214.855,0.8666666666666667,-0.0010988466497469454,-0.00027365456663990207,-0.7073270086183994,-0.7068855777970177,0.002847822678526054,-0.0012804064600462901,0.0033700558128786813,0.0,1.2009200216290808e-15,9.806256158634538
147,214.968,0.8983402489626556,-0.001141985874465966,-0.00029450275814268056,-0.7073286526999736,-0.7068838542595781,0.002199882503980475,-0.0012657199565500746,0.00159937706186885,0.0,1.2003750039077102e-15,9.80180575120482
148,215.068,0.8633540372670807,-0.0011801621795270553,-0.00031295248513629406,-0.7073301076394197,-0.7068823290052068,0.001626484119426733,-0.0012527230508012084,3.240471584208806e-05,0.0,1.1998926873401253e-15,9.7978673375502
149,215.179,0.9077868852459017,-0.0012330480717900262,-0.0002679016866290174,-0.7073369563551766,-0.7068753987608141,0.001404521046243454,-0.0014931365877271356,-0.0009520156717158362,0.0,1.2001739874290844e-15,9.800164327091633
150,215.261,0.9057377049180327,-0.001274491887574277,-0.00021981329066314136,-0.7073431984185068,-0.7068690956829671,0.0013342137704510626,-0.0017283248707681733,-0.001508658275980328,0.0,1.2005663356233849e-15,9.80336809322709
151,215.364,0.8592132505175983,-0.0013278487862473799,-0.00015495158913801402,-0.7073498380608514,-0.7068623734485541,0.0011950522542465286,-0.001996177493594595,-0.0019529012304264686,0.0,1.2009682532858392e-15,9.80665
152,215.458,0.8731808731808732,-0.001381786273756855,-7.777057449806661e-05,-0.7073510518163953,-0.706861060303384,0.0008628887643571958,-0.0021294004293158646,-0.0013296500684227821,0.0,1.2009682532858392e-15,9.80665
153,215.561,0.8833333333333333,-0.0014408879887938416,6.8001117563562335e-06,-0.7073523817825764,-0.7068596214315488,0.0004989223871379802,-0.0022753787524998305,-0.0006467259228228976,0.0,1.2009682532858392e-15,9.80665
154,215.659,0.8791666666666667,-0.0014945006865208627,7.394286654267467e-05,-0.707353506069009,-0.7068583808635488,0.0009394575967452802,-0.0023893701341003108,-0.00043369866115972234,0.0,1.2009682532858392e-15,9.80665
155,215.767,0.8618556701030928,-0.0015520501634473938,0.00014013710870240328,-0.7073546624595521,-0.7068570889125396,0.0018856041696853677,-0.0025004149954766003,-0.00045463042752817186,0.0,1.2009682532858392e-15,9.80665
156,215.859,0.8633540372670807,-0.0015913536631488204,0.00018718950739836376,-0.7073557145512414,-0.7068559439860954,0.0025151190413423537,-0.002447656623927412,-0.0005355325801463073,0.0,1.2009682532858392e-15,9.80665
157,215.957,0.9043659043659044,-0.0015755335832635792,0.00018190762957368616,-0.7073572329964314,-0.7068544610310873,0.0021384265797444735,-0.0015169545572371063,-0.000996025940721249,0.0,1.2009682532858392e-15,9.80665
158,216.069,0.8875,-0.0015574534919661589,0.00017587119777405397,-0.7073589683623629,-0.7068527662253637,0.0017079209093468493,-0.0004532950524480696,-0.0015223040670926682,0.0,1.2009682532858392e-15,9.80665
159,216.172,0.9018789144050104,-0.0015376599924697078,0.00015188535870611607,-0.7073610191590226,-0.7068507617578418,0.0017441208723799459,-0.00011176355127688689,-0.0011675770940547366,0.0,1.2009682532858392e-15,9.80665
160,216.268,0.9161425576519916,-0.0015182658203689733,0.00012402268639163038,-0.7073630664675677,-0.7068487603268597,0.001906945461606873,1.6368762035632353e-05,-0.0005864081474664133,0.0,1.2009682532858392e-15,9.80665
161,216.36,0.939203354297694,-0.0015021512410772768,0.00010688031965594012,-0.7073646587588949,-0.7068472049530787,0.002021273049796287,-2.1728692152860437e-06,-6.330966566415096e-05,0.0,1.2009682532858392e-15,9.80665
162,216.472,0.9035639412997903,-0.0014992967253984833,0.00015084875581454165,-0.7073640895839693,-0.7068477712642145,0.0018775339253366832,-0.0009833659557532612,0.0003438800359295371,0.0,1.2009682532858392e-15,9.80665
163,216.562,0.89937106918239,-0.0014970029181565956,0.00018618053487056373,-0.7073636322112613,-0.7068482263356629,0.001762029271753063,-0.001771824686007058,0.0006710860461387784,0.0,1.2009682532858392e-15,9.80665
164,216.669,0.8898128898128899,-0.0014856899674643845,0.00017625551295545825,-0.7073597786973803,-0.7068521087282941,0.0016109138228396582,-0.0014657293688624523,0.0006035324907355184,0.0,1.2009682532858392e-15,9.80665
165,216.759,0.9130434782608695,-0.001473093117723609,0.00014927059426011815,-0.7073553496264119,-0.7068565734356335,0.0014788572696726213,-0.0007620059300478606,0.00038286032656252426,0.0,1.2009682532858392e-15,9.80665
166,216.874,0.946058091286307,-0.0014512387518225318,0.00012083913731468869,-0.7073538573175054,-0.7068581179614621,0.0011173201344784945,0.00013839391253721558,0.00026080821407954463,0.0,1.2009682532858392e-15,9.80665
167,216.984,0.9375,-0.0014123824897114413,0.00011250275427405762,-0.707365420917835,-0.706846625137865,0.0001704435074144342,0.0010033797371728835,0.0006426150600115564,0.0,1.2009682532858392e-15,9.80665
168,217.055,0.9436325678496869,-0.0013873025387124687,0.00010712199794783294,-0.7073728846962295,-0.7068392070426341,-0.0004407223155086385,0.0015616887694376385,0.0008890540242039991,0.0,1.2009682532858392e-15,9.80665
169,217.157,0.8935281837160751,-0.001360852976650827,7.922887716425473e-05,-0.7073723644100947,-0.7068397819720188,-0.0005647514408919696,0.001753399642650023,0.0005025602383538467,0.0,1.2009682532858392e-15,9.80665
170,217.259,0.9232365145228216,-0.0013408429620184832,3.778356251213308e-05,-0.7073642874224626,-0.7068479062188117,-0.00018200460518716887,0.00153486391669143,-0.0003816687492652212,0.0,1.2009682532858392e-15,9.80665
171,217.366,0.9106029106029107,-0.0013193496838409045,-3.1495557013254186e-06,-0.7073560425364527,-0.7068562002082694,4.558521698362346e-06,0.001191607051183413,-0.0010977431422009136,0.0,1.2009682532858392e-15,9.80665
172,217.462,0.920997920997921,-0.0012981053026127625,-2.9946529020673697e-05,-0.7073495352212051,-0.7068627497355033,-0.0006669490436662125,0.00043868506890579293,-0.0009147627260385936,0.0,1.2009682532858392e-15,9.80665
173,217.561,0.906832298136646,-0.0012761970344712312,-5.758090775626376e-05,-0.707342824552356,-0.7068695039354632,-0.0013594412204487346,-0.0003377657253183441,-0.000726064171871118,0.0,1.2009682532858392e-15,9.80665
174,217.665,0.9366053169734151,-0.0012708893171935885,-6.985378520775995e-05,-0.7073439871104541,-0.7068683496712272,-0.0011597283397183637,-0.0006401468160194862,0.00028169378860889917,0.0,1.2009682532858392e-15,9.80665
175,217.758,0.9100204498977505,-0.0012735025369902974,-7.386381143573753e-05,-0.7073484399081647,-0.7068638887307667,-0.0005957768553778123,-0.000697209728896566,0.001519325269531047,0.0,1.2009682532858392e-15,9.80665
176,217.865,0.936734693877551,-0.0012508956010595692,-9.111439964416788e-05,-0.7073538470467128,-0.7068585097753735,-0.00043673283109133275,0.000331209979126576,0.0024909148024909104,0.0,1.2009682532858392e-15,9.80665
177,217.961,0.9306122448979591,-0.001130648108730783,-0.00015591091172414154,-0.7073598068136375,-0.7068527218511669,-0.002205645599037326,0.005523855463844456,0.0015971799753984016,0.0,1.2009682532858392e-15,9.80665
178,218.057,0.9081632653061225,-0.0010104006164020321,-0.00022070742380409598,-0.7073657665805623,-0.7068469339269603,-0.003974558366982795,0.0107165009485608,0.0007034451483061577,0.0,1.2009682532858392e-15,9.80665
179,218.159,0.8272357723577236,0.000911757975042845,-0.001470796587756099,-0.7073658053871176,-0.7068356896507123,-0.009529645583823996,0.03940713054907325,0.0006902828981764416,0.0,1.201287260478118e-15,9.80925489140625
180,218.262,0.7845528455284553,0.003758755130998319,-0.0033295533689842163,-0.7073626670010037,-0.7068217628595099,-0.01699502087285452,0.08007935803106792,0.0011497974562643782,0.0,1.2017704625487762e-15,9.813200535742187
181,218.362,0.6970954356846473,0.00704136795711883,-0.005497412776911022,-0.7073485772271993,-0.7067945235446951,-0.023549328026500938,0.1161011459253074,0.0014034710013353805,0.0,1.2024609547180606e-15,9.818838832186232
182,218.46,0.6639004149377593,0.013137942428161518,-0.009639114314768302,-0.7072734449162268,-0.7066916475103752,-0.02612059032506804,0.1321556909605569,0.000583292680994167,0.0,1.2043669448204417e-15,9.834402422469637
183,218.562,0.70020964360587,0.019483356673531866,-0.013949864894986688,-0.7071952459803165,-0.7065845724542462,-0.028796802105209057,0.14886552354826396,-0.0002703623054833399,0.0,1.2063507304372055e-15,9.850601261336035
184,218.66,0.6834381551362684,0.02466597429398851,-0.01748499787787556,-0.7071128631985177,-0.7064241427114673,-0.025918954562041022,0.13462203936207862,-0.0010034933400761856,0.0,1.2082312517699965e-15,9.865956883333334
185,218.769,0.6950207468879668,0.029937444557862528,-0.021089827123265743,-0.7070173234065414,-0.7062146685456266,-0.019779540469041863,0.10244097084634694,-0.001771972580981073,0.0,1.2103091174780625e-15,9.882923944444444
186,218.859,0.6618257261410788,0.03395973503867946,-0.02383744954452989,-0.7069439457740165,-0.7060498661626813,-0.01508007357532824,0.07761866841689562,-0.0020557085265325934,0.0,1.2119023698729837e-15,9.895933837550201
187,218.957,0.6652977412731006,0.03620927089252251,-0.025353371364029514,-0.7068995727321125,-0.7059230298894357,-0.012347761216203353,0.06187167368739611,-0.00010223147537889894,0.0,1.2128477103454495e-15,9.903653128313252
188,219.062,0.6032719836400818,0.038619487878783706,-0.026977573313493937,-0.7068520301872152,-0.7057871338823868,-0.009420283688568582,0.044999893620069654,0.0019907796508578904,0.0,1.2138605751373776e-15,9.911923796987953
189,219.155,0.5637860082304527,0.04024512841474785,-0.028067889058532688,-0.706801576826958,-0.7057057031838606,-0.007327782174226346,0.03697158122368957,0.0012604541756330724,0.0,1.2144637186775056e-15,9.916848837747036
190,219.264,0.4673684210526316,0.04182225626149919,-0.02912128735849278,-0.7067370644183629,-0.7056353608969912,-0.005197854687757906,0.03201979670393837,-0.0012613134569094985,0.0,1.214981131877538e-15,9.92107383715415
191,219.373,0.3684210526315789,0.04308134569496253,-0.029988932227072544,-0.7066895769208581,-0.7055738502085841,-0.002584351764639725,0.023863434265822107,-0.003158889024616112,-0.0009885735887088165,1.2155009376733825e-15,9.92531837358871
192,219.454,0.30679156908665106,0.043222895323862566,-0.03016989168093058,-0.706696797219064,-0.7055501918790112,0.0005652228006041045,0.009800835332322747,-0.0030104808468041197,-0.004191552016128979,1.2158931894012705e-15,9.92852135201613
193,219.566,0.3682539682539683,0.04341861826752676,-0.03042010722206755,-0.7067067808412746,-0.7055174791270094,0.004920190100693205,-0.009643745909054036,-0.002805274477483888,-0.008620361693548297,1.216435562160819e-15,9.93295016169355
194,219.654,0.38127090301003347,0.04291243202366997,-0.030112592376002886,-0.7067251319472668,-0.7055422207817371,0.004942999152089877,-0.015644992864321017,-0.0024325234421884168,-0.00980665,1.2171336672348294e-15,9.938650622222221
195,219.762,0.2909698996655518,0.04187225789448819,-0.0294151789013596,-0.7067543234562137,-0.705604607538522,0.002813350789005212,-0.01712138448206192,-0.001840785774956729,-0.00980665,1.2181630685947888e-15,9.947056322222222
196,219.86,0.3573667711598746,0.04105573641401367,-0.028803313521029078,-0.7074281419078818,-0.7049918876781041,-0.0009282780106950965,-0.017462384530607514,0.022268188351272252,-0.00980665,1.2189827770851268e-15,9.95374975
197,219.962,0.347682119205298,0.04115574168583181,-0.028322913806407675,-0.7129580154781685,-0.6993615029459449,-0.01831755842467008,-0.01036790093798109,0.22318928106539954,-0.00980665,1.2189827770851268e-15,9.95374975
198,220.057,0.38741721854304634,0.04124888385076048,-0.027875482699652347,-0.7181083879210839,-0.6941175171659916,-0.034513456849454414,-0.0037602936703373217,0.410321671338404,-0.00980665,1.2189827770851268e-15,9.95374975
199,220.154,0.297029702970297,0.04099903779377784,-0.02838870839779827,-0.7280136657323232,-0.6834272634530669,-0.024176833669055143,0.0009190642220129066,0.4150078363278439,-0.012229469411764294,0.0024228194117655137,9.958595388823529
200,220.24,0.10344827586206896,0.04061247305262485,-0.02930789678710611,-0.739018917310394,-0.6713961927071981,-0.0021539400386450525,0.004078581403283684,0.3299804108984295,-0.015536810196078568,0.005730160196079788,9.965210070392157
201,220.354,0.2887323943661972,0.039964601901732545,-0.030447331118243885,-0.7529338200593046,-0.6561684855336306,0.024777427068855124,0.005204173590401032,0.2204966271019307,-0.019298226907630132,0.009806650000001221,9.97367812309237
202,220.445,0.5555555555555556,0.03801484007946474,-0.03052105476973007,-0.7569183726623874,-0.6516331251764992,0.022353076813630537,-0.026289748319657337,0.16723275166678642,-0.01571427048192805,0.009806650000001221,9.977262079518072
203,220.554,0.6239316239316239,0.03567941108356083,-0.030609361121510255,-0.7616910785276196,-0.6462006605729005,0.019449184749679327,-0.06401323720094751,0.10343316460708875,-0.011421399598393481,0.009806650000001221,9.981554950401605
204,220.644,0.6666666666666666,0.03243046301243152,-0.029032237467041918,-0.7643621243775782,-0.6432857715756486,0.016081136621172675,-0.0894812045068402,0.06951858245801512,-0.011752098785425252,0.00980665000000122,9.971497007287448
205,220.761,0.5620915032679739,0.02677032785838617,-0.025187140381305224,-0.7664533390731413,-0.6412048791063562,0.010647182763829994,-0.11641125709783401,0.04584023626408371,-0.016397354048582495,0.009806650000001216,9.943625475708505
206,220.842,0.5882352941176471,0.022851772751738227,-0.02252515009117903,-0.767901103093147,-0.6397642612429995,0.00688521470874548,-0.13505513966083527,0.029447535052895563,-0.0196133,0.009806650000001214,9.9243298
207,220.954,0.5274725274725275,0.016886462780071203,-0.017751657875354744,-0.7686424748564262,-0.6391508594377918,0.004615455405720353,-0.13744750141861883,0.020931893252866953,-0.0196133,0.009806650000001211,9.889599529644268
208,221.072,0.5953757225433526,0.010601582631350564,-0.012722442862254131,-0.769423562964167,-0.638504596821591,0.00222410185431887,-0.13996802541342654,0.011960056356408202,-0.0196133,0.009806650000001206,9.85300870909091
209,221.156,0.60625,0.006151704958920463,-0.008999272731440829,-0.7696784909882205,-0.6382946144176231,0.0007795015024759653,-0.14098553235332176,0.008883737535807144,-0.0196133,0.009806650000001204,9.831633608333332
210,221.246,0.60625,0.0013937167714579857,-0.004952371965656156,-0.769829989075526,-0.6381706564411569,-0.0006641708905735472,-0.1417619201044242,0.0069250262966969985,-0.0196133,0.0098066500000012,9.810619358333332
211,221.354,0.6078431372549019,-0.004340577243313906,-7.952015346854616e-05,-0.7699861668218073,-0.6380386371732013,-0.0022431630939301244,-0.1429100006578432,0.00439860898392973,-0.01933649939516108,0.009806650000001197,9.785375896370967
212,221.436,0.6209150326797386,-0.008965071942443836,0.003801772277825954,-0.7698240788987768,-0.6381216812423761,-0.001761365794781358,-0.14615252626038375,0.000552714879309019,-0.01609397802419347,0.009806650000001195,9.765920768145161
213,221.554,0.47368421052631576,-0.015619832607045678,0.009387046752127991,-0.769590830424172,-0.6382411836833837,-0.001068047730152621,-0.15081859968843006,-0.004981620539535613,-0.011427910685483806,0.009806650000001192,9.737924364112903
214,221.643,0.4449760765550239,-0.020848952202094585,0.013745197366752667,-0.7692731586745464,-0.6383845386735587,-0.0008269519431527749,-0.15434374974434645,-0.007630179456648361,-0.011697088554216976,0.00980665000000119,9.722525484337348
215,221.754,0.37327188940092165,-0.027594219269775327,0.019335676289387246,-0.768725956914541,-0.6386200273833549,-0.000826496062856392,-0.1587464890207151,-0.009308156894003675,-0.01606872771084317,0.009806650000001188,9.70941056686747
216,221.837,0.41935483870967744,-0.03263797752759102,0.02351594431261881,-0.7683167880309334,-0.6387961135357251,-0.000826155179391529,-0.1620386273985405,-0.010562860743557737,-0.019337611044176504,0.009806650000001187,9.69960391686747
217,221.954,0.46,-0.041312592300289164,0.030621707267630267,-0.7676567412891656,-0.638680279027439,-1.7896718512467832e-05,-0.18390329597718438,-0.007668964375567052,-0.015315564940238592,0.009806650000001187,9.69877685
218,222.039,0.4229390681003584,-0.04768700315001115,0.03584009699093409,-0.7671733706125584,-0.6385792950497151,0.0006066444223241261,-0.20058417379618435,-0.005351002966295226,-0.011994587848605989,0.009806650000001187,9.69877685
219,222.161,0.3875,-0.056626122860065166,0.04331317074832597,-0.7664318112794342,-0.6382710012804848,-1.342586585364883e-05,-0.19428646990231105,-0.003534254933973484,-0.007238241666666667,0.007238241666667855,9.711618891666667
220,222.281,0.5467836257309941,-0.06524340987118817,0.05064967224293913,-0.7656625324468023,-0.6378314319193717,-0.0018889398419386929,-0.16285472682544164,-0.003007672178292893,-0.0025684083333333326,0.0025684083333345244,9.734968058333333
221,222.394,0.6037151702786377,-0.0707893831466272,0.05548888136410365,-0.7651442283818429,-0.6375410053553995,-0.0029489998481270047,-0.11432516983295199,-0.002693258996409572,0.0,1.1958026428470072e-15,9.764469589759036
222,222.474,0.639344262295082,-0.07216209024334426,0.05685761889453286,-0.7649821846252272,-0.6374581740101058,-0.0029975569874317433,-0.0611471301730248,-0.0026510587134155415,0.0,1.1992753221336162e-15,9.792826168072285
223,222.572,0.6267123287671232,-0.07384365643682321,0.05853432236930921,-0.7647836810233728,-0.6373567056121211,-0.0030570394830800674,0.003995968410407724,-0.0025993633667478373,0.0,1.2035293542597138e-15,9.827562976506025
224,222.674,0.6956521739130435,-0.0719449828555515,0.05718424389706894,-0.7648856447421765,-0.6375618925689849,-0.0024864927315747546,0.04524639540587708,-0.0017434919122549988,0.0,1.206452192659277e-15,9.851429763253014
225,222.779,0.7180451127819549,-0.06883471363016568,0.05481407118176467,-0.7650883443422762,-0.6378715569003623,-0.0016988394136754068,0.07930006957556707,-0.0006083996839546936,0.0,1.2089843546390963e-15,9.872106434939758
226,222.874,0.6942148760330579,-0.06548586726996063,0.05220878889911448,-0.7653061839709423,-0.6381753189139051,-0.0010049454385481795,0.10461986284569384,-2.656417153960595e-05,0.0,1.2102984847356695e-15,9.882837121513944
227,222.978,0.6832579185520362,-0.060487340409405,0.04820852058755703,-0.7656304791072145,-0.638566630972136,-0.00029201610050942097,0.11865852393239716,-0.0004986920071658652,0.0,1.2093032600476874e-15,9.874710495219123
228,223.066,0.7149321266968326,-0.05625781768124338,0.044823678170086007,-0.7659048826840602,-0.6388977411752543,0.0003112318009078701,0.13053739100575915,-0.0008981847911572359,0.0,1.2084611468501643e-15,9.867834119123506
229,223.178,0.5915492957746479,-0.050203961063879726,0.03996547384836325,-0.7662283273084036,-0.6392993405620911,-0.0003766535064352324,0.13983953957046721,-0.0013684147547575476,0.0,1.2077832715485327e-15,9.862298847222222
230,223.274,0.6145833333333334,-0.044804577021974795,0.03562875489775351,-0.7664974761284059,-0.6396373552842386,-0.001422746775908263,0.1459888485925532,-0.0017594850866035133,0.0,1.2073257598329952e-15,9.858562980555556
231,223.394,0.640625,-0.03794022796669233,0.030082482592755293,-0.7667929775460501,-0.6400239230400423,-0.0014330492197206493,0.14970699072845534,-0.002265640536338203,0.0,1.2065275740712107e-15,9.852045299193549
232,223.474,0.6610169491525424,-0.03324053430353846,0.026250509061330283,-0.7669460776078918,-0.6402430791110248,-4.8595101332557164e-05,0.1479296859714297,-0.002621649931590458,0.0,1.2057527558432846e-15,9.845718428225808
233,223.583,0.6647727272727273,-0.02683720168748952,0.021029445124762243,-0.7671546764421512,-0.6405416792577386,0.0018377236349717474,0.14550810823998156,-0.0031067127326217915,0.0,1.2046970660077347e-15,9.83709806653226
234,223.674,0.6666666666666666,-0.02192147633549133,0.01697348428145816,-0.7672431449270157,-0.6407062575397189,0.0010490329974951844,0.14048025012016296,-0.002128016421227689,0.0,1.2041994297768224e-15,9.833034558333335
235,223.778,0.6821192052980133,-0.016385442826512036,0.012395797422196136,-0.7673279312267693,-0.6408782114336463,-0.000302519578124254,0.1341615219910951,-0.0007459526370644353,0.0,1.2037037920849905e-15,9.828987369444446
236,223.874,0.6546762589928058,-0.011479757500119502,0.008373558585751074,-0.7673803663198836,-0.6410195199342602,-0.00128347885366825,0.12713783348520136,1.1759983364499496e-05,0.0,1.203118373868335e-15,9.824207066935486
237,223.967,0.6474820143884892,-0.007260744802853564,0.005007303936233549,-0.7673637958351217,-0.6411109829403512,-0.0015383719179343793,0.11722725837100852,-0.0006053401535140754,0.0,1.2022176476783704e-15,9.816852079435483
238,224.074,0.5629139072847682,-0.0024066119146023118,0.0011343012749614623,-0.767344730868783,-0.6412162145710149,-0.0018316359811222334,0.10582476872349855,-0.0013153370851914353,0.0,1.2011813282985188e-15,9.808389889516128
239,224.177,0.6462585034013606,0.0012691329561019403,-0.001853000466159101,-0.7673122343363526,-0.6412500430240261,-0.0022472105213506856,0.09324885372604821,-0.0007472556857726172,0.0,1.2013542787958239e-15,9.809802137499998
240,224.267,0.6715328467153284,0.004244353907544506,-0.004287426507197402,-0.7672804825221202,-0.6412635897384353,-0.0026419630282491354,0.0818805449775305,4.614662196074544e-05,0.0,1.2017831960291402e-15,9.813304512499998
241,224.38,0.7007299270072993,0.007619135793022322,-0.007040358476067239,-0.7672307220482368,-0.6412830781570651,-0.00258009812058602,0.06807367095062994,0.0004132898231489307,0.0,1.2020142578935398e-15,9.815191275806452
242,224.474,0.6993464052287581,0.009666817191236753,-0.008691082288627059,-0.7671684945150814,-0.6413045112605709,-0.0013547430142120565,0.05757094475050337,-0.0006057843744317206,0.0,1.201559052184633e-15,9.811474239112904
243,224.576,0.6845637583892618,0.011888769346746254,-0.010482293234170874,-0.7671009710216574,-0.641327768457992,-2.5102366869961864e-05,0.04617436951206699,-0.0017115882909555175,0.0,1.20106510556433e-15,9.807440858870967
244,224.666,0.6912751677852349,0.01306484564756957,-0.011441573659582625,-0.7670642961663641,-0.6413332710644079,0.0001765544000109351,0.03634218557962347,-0.0014272532439625271,0.0,1.2009682532858392e-15,9.80665
245,224.775,0.7054794520547946,0.014217753296525044,-0.012388413982893786,-0.7670278045941671,-0.6413347384716562,8.45940810998086e-05,0.024511697212519962,-0.0006468765506162969,0.0,1.2009682532858392e-15,9.80665
246,224.874,0.6506849315068494,0.015018054883957823,-0.013057617487155187,-0.7670015250813952,-0.6413365794130372,0.00013723671145274128,0.014091574633493475,-0.0004267761891242838,0.0,1.2010883501111677e-15,9.807630665
247,224.973,0.6493506493506493,0.015087725707349323,-0.013162139617764095,-0.7669955636265674,-0.6413399245040247,0.0005929313611705945,0.0046334517076588935,-0.0016531749614517345,0.0,1.201563933539469e-15,9.8115140984
248,225.074,0.6975308641975309,0.015158804022122456,-0.013268773306567101,-0.7669894817383088,-0.6413433371726078,0.0010578319634079118,-0.005015744408594754,-0.002904349466553239,0.0,1.2020491247137964e-15,9.815475985
249,225.166,0.7125,0.014729795670022663,-0.012920367987964239,-0.7669802115746249,-0.6413708184703257,0.0017560801999905343,-0.012107536776447696,-0.002325678505349412,0.0,1.2018460694388431e-15,9.813817912851405
250,225.274,0.7142857142857143,0.014009899917903336,-0.012316213092872234,-0.7669676952679654,-0.6414137550434501,0.0026961215977448078,-0.019689100487793175,-0.0008936829373603948,0.0,1.2013251675458518e-15,9.809564426104417
251,225.382,0.7077922077922078,0.013100679205151842,-0.011585590447310194,-0.766959028968801,-0.6414563686756535,0.003431822392984365,-0.025980164041562205,8.73999627900432e-05,0.0,1.2009682532858392e-15,9.80665
252,225.465,0.6770186335403726,0.012085250349054964,-0.010812556125642662,-0.7669588085030584,-0.6414885778714434,0.0036554301444876557,-0.02865639753309212,8.715768020803221e-05,0.0,1.2009682532858392e-15,9.80665
253,225.566,0.6645962732919255,0.010849608006093688,-0.009871875806505052,-0.766958540225468,-0.6415277721940313,0.003927531143304915,-0.03191301901073698,8.686285441546462e-05,0.0,1.2009682532858392e-15,9.80665
254,225.67,0.6280487804878049,0.009417253686443304,-0.008797886999528012,-0.7669642403503957,-0.6415571407243934,0.0037853906787932404,-0.033952551037072905,0.00046346854325376096,0.0,1.2009682532858392e-15,9.80665
255,225.777,0.6839080459770115,0.007876841429076664,-0.007648968988747867,-0.7669725976451719,-0.6415827725055167,0.003462998893111995,-0.035502921342849485,0.0010081466366536102,0.0,1.2009682532858392e-15,9.80665
256,225.874,0.6436781609195402,0.0064788475722976305,-0.006587799585277598,-0.7669769207233346,-0.6416065122725134,0.002969570532441225,-0.03633642193675046,0.0009880152093247742,0.0,1.2008337448414712e-15,9.8055516552
257,225.988,0.6428571428571429,0.00483136885115501,-0.005283809161134485,-0.7669725797442685,-0.6416358707796929,0.0018070520553738296,-0.035659461796283744,-0.000524001156911195,0.0,1.2002861033179728e-15,9.8010798228
258,226.066,0.6045197740112994,0.0037041465682679546,-0.004391605186720776,-0.766969609600697,-0.6416559581793421,0.0010116446763277168,-0.035196278542280204,-0.0015585386706515952,0.0,1.1999114012229477e-15,9.798020147999999
259,226.169,0.6264367816091954,0.0022810659473533625,-0.0032566320269155524,-0.7669585531819365,-0.6416812521931919,0.0010764616826135491,-0.034601587269987355,-0.0017106273592198214,0.0,1.2001151845662434e-15,9.799684165277778
260,226.26,0.6529411764705882,0.0010475377747211482,-0.0022695715003707294,-0.7669461945643721,-0.6417031521421319,0.001538620666704148,-0.034082333956446074,-0.0014042062315321752,0.0,1.2005488675465964e-15,9.803225455555554
261,226.379,0.6941176470588235,-0.000506206621220594,-0.0010500146974321213,-0.7669268728968064,-0.6417323547482012,0.002306377739543522,-0.03246959417244034,-0.0012039834669288999,0.0,1.2009682532858392e-15,9.80665
262,226.471,0.6549707602339181,-0.0015772112285200365,-0.0002634540695366004,-0.766904999223266,-0.6417561697894612,0.0032585305501122213,-0.029173605996165284,-0.001489173280648303,0.0,1.2009682532858392e-15,9.80665
263,226.571,0.6470588235294118,-0.002741346671236591,0.0005915031346974925,-0.7668812234911568,-0.6417820557038741,0.004293479257251908,-0.025591010152388766,-0.0017991622086041144,0.0,1.2009682532858392e-15,9.80665
264,226.672,0.6518987341772152,-0.0037252653861199305,0.0012572752923424675,-0.7668605853239632,-0.641800408283881,0.004327081558901996,-0.022849024637885868,-0.0016463250731644577,0.0,1.2009682532858392e-15,9.80665
265,226.765,0.6392405063291139,-0.004576186651090172,0.0018135631606862597,-0.7668425505809977,-0.6418150708336335,0.004067665440851347,-0.020575763422098152,-0.0013718730411143212,0.0,1.2009682532858392e-15,9.80665
266,226.868,0.6729559748427673,-0.0054337377248084105,0.002398209387453121,-0.766824765142422,-0.6418288738761093,0.003541113184129401,-0.017782420533369547,-0.0011090818927230743,0.0,1.2009682532858392e-15,9.80665
267,226.994,0.6729559748427673,-0.00605193605425396,0.0029537072143956634,-0.766814118676133,-0.6418333916752599,0.0016824220111744778,-0.012965954847664166,-0.0009966263412890743,0.0,1.2009682532858392e-15,9.80665
268,227.1,0.7225806451612903,-0.006560705581277985,0.0034141248142690495,-0.7668050666726559,-0.6418374298713632,0.0001438079834184303,-0.008931931669659042,-0.0009027720729899372,0.0,1.2009682532858392e-15,9.80665
269,227.182,0.6556291390728477,-0.006654101514386551,0.003586876125208714,-0.7667955289857564,-0.6418468619097556,-0.0003812038895932067,-0.006287333009119189,-0.0008501193940080055,0.0,1.2009682532858392e-15,9.80665
270,227.27,0.7567567567567568,-0.006754331296259191,0.003772267775973294,-0.7667852934193277,-0.6418569840972986,-0.0009446312655083207,-0.003449227129514506,-0.0007936140799785965,0.0,1.2009682532858392e-15,9.80665
271,227.375,0.7702702702702703,-0.006823540557749014,0.003924003033572721,-0.7667735478737047,-0.6418694301606548,-0.0013359243660586392,-0.0006358852161027684,-0.0006573480357735056,0.0,1.2009682532858392e-15,9.80665
272,227.474,0.7861635220125787,-0.006770034859148747,0.00390331536587566,-0.7667635751037296,-0.6418820335172654,-0.0010425521031141155,0.0006659703117708399,-0.00036659128560439494,0.0,1.2009682532858392e-15,9.80665
273,227.594,0.7777777777777778,-0.006705179466905991,0.0038782394050307354,-0.7667514868976992,-0.6418973103131569,-0.0006869493601510057,0.0022439770122239253,-1.4158861156937544e-05,0.0,1.2009682532858392e-15,9.80665
274,227.667,0.7708333333333334,-0.006552380337595739,0.003759532361299727,-0.7667409731327148,-0.6419120798363543,-0.0008403499107807828,0.0033146381769329006,-0.0006827609792817194,0.0,1.2009682532858392e-15,9.80665
275,227.768,0.7943262411347518,-0.0063365558472193075,0.0035912619357211886,-0.7667263035301334,-0.6419327278068216,-0.0010669985525309973,0.004800278548151212,-0.0016422268268651984,0.0,1.2009682532858392e-15,9.80665
276,227.867,0.723404255319149,-0.00609700331727717,0.0034068213292628604,-0.7667117359712731,-0.6419534588950243,-0.0013146015759557023,0.006184531953185645,-0.0024434697469696027,0.0,1.2009682532858392e-15,9.80665
277,227.994,0.7591240875912408,-0.0056562758774377385,0.003077291473883138,-0.7666921504011034,-0.6419823975432688,-0.0017534618005156384,0.00761737726628776,-0.002807955484837283,0.0,1.2009682532858392e-15,9.80665
278,228.065,0.7664233576642335,-0.0054098849465039085,0.002893066121662997,-0.7666812009878589,-0.641998575842681,-0.0019988088551908525,0.008418416772037678,-0.003011723102070375,0.0,1.2009682532858392e-15,9.80665
279,228.164,0.7637795275590551,-0.005024619650480598,0.0026155666039400717,-0.7666723104862248,-0.642013373321801,-0.001089134565872706,0.009182632354697696,-0.0025278694925823567,0.0,1.2009682532858392e-15,9.80665
280,228.272,0.7165354330708661,-0.004583588694983353,0.0023025840391789594,-0.7666657832014301,-0.6420256562802639,0.0005257793507690753,0.009840901787710663,-0.0016180924710305982,0.0,1.2009682532858392e-15,9.80665
281,228.372,0.7709923664122137,-0.004168927003893239,0.00200802908079559,-0.7666572132787928,-0.6420398222688203,0.00155519251021454,0.01026723345027492,-0.0009119499271381711,0.0,1.2009682532858392e-15,9.80665
282,228.474,0.7338129496402878,-0.0037285989193887948,0.0016944662398013966,-0.7666415054237885,-0.6420619737164274,0.0013204073048429027,0.01019693008833842,-0.0005674140694415543,0.0,1.2009682532858392e-15,9.80665
283,228.574,0.6906474820143885,-0.0032969047188940387,0.0013870516898069453,-0.7666261055659412,-0.6420836908219245,0.0010902257309490326,0.010128005223694761,-0.00022963381679765417,0.0,1.2009682532858392e-15,9.80665
284,228.672,0.753731343283582,-0.002898384292970487,0.0011030479655207302,-0.766615674685659,-0.6420984939328287,0.00045433399254515307,0.00931449892348156,-0.00017329825568884657,0.0,1.2009682532858392e-15,9.80665
285,228.773,0.8059701492537313,-0.002495866784885431,0.0008161202971281888,-0.7666064824376283,-0.6421115843593703,-0.0003381722808010327,0.008226750307230368,-0.00020705368341989453,0.0,1.2009682532858392e-15,9.80665
286,228.869,0.8428571428571429,-0.0021311783129902674,0.0005506941618007917,-0.7665953749061868,-0.6421266341573183,-0.0009356392439085286,0.0073354448746090145,-0.0005040430894635564,0.0,1.2009682532858392e-15,9.80665
287,228.966,0.8,-0.0018314288627160784,0.00031052135169551865,-0.7665750505333897,-0.6421518521008986,-0.0009410984471048186,0.006982357486298166,-0.0018212511081642292,0.0,1.2009682532858392e-15,9.80665
288,229.059,0.8175182481751825,-0.00154404021451511,8.025257499669495e-05,-0.7665555642790586,-0.6421760301292799,-0.0009463325285198172,0.006643830402659997,-0.0030841412704233824,0.0,1.2009682532858392e-15,9.80665
289,229.17,0.8148148148148148,-0.001277374378411041,-0.0001570841785261,-0.7665469550075239,-0.6421868897028313,0.00020348713329906279,0.0059805129229378055,-0.0026934271060503946,0.0,1.2006183648970867e-15,9.803792944488189
290,229.268,0.8296296296296296,-0.0010756421505883195,-0.0003500706050441257,-0.7665458204910225,-0.6421885323390473,0.0017289790218535188,0.005280429182031469,-0.0015106010929072304,0.0,1.200154999193063e-15,9.800009276377953
291,229.386,0.8161764705882353,-0.0008662630987076252,-0.0005531207483367741,-0.7665421662996889,-0.6421931415422085,0.003058565714536045,0.004177979734699866,-0.0005380607842607237,0.0,1.199942324939915e-15,9.79827265931174
292,229.471,0.9,-0.0007704428395686994,-0.0006512761623950015,-0.7665357797254839,-0.6422007791521601,0.0031840698774677815,0.0029580760436124665,-0.0005786040213867765,0.0,1.2003556136100739e-15,9.801647417408907
293,229.563,0.85,-0.0006667315002654184,-0.0007575149634932905,-0.7665288671981092,-0.6422090457417547,0.003319909677346802,0.0016377096956123318,-0.0006224861133349635,0.0,1.2008029378177754e-15,9.805300096761131
294,229.663,0.8387096774193549,-0.0006105937427360329,-0.0008381400340827964,-0.766522607903745,-0.6422164826243708,0.002377521205996387,0.0006534005164628542,-0.0006590476617250738,0.0,1.2009682532858392e-15,9.80665
295,229.765,0.828125,-0.0005830697322038105,-0.0009020645235759895,-0.7665168825128725,-0.6422232545568075,0.000843518267733788,-0.00011368229682262609,-0.000690488780831845,0.0,1.2009682532858392e-15,9.80665
296,229.874,0.8432835820895522,-0.0005615343081813832,-0.0009530279796064729,-0.7665126689751784,-0.642228234130332,-0.0004136848603375139,-0.0006886334321461722,-0.000484675757121364,0.0,1.2009682532858392e-15,9.80665
297,229.978,0.8625954198473282,-0.0005627298567435819,-0.0009537704313153198,-0.7665139061897622,-0.6422267553337989,-0.0005586323500610958,-0.0005615942250005839,0.000372510707471561,0.0,1.2009682532858392e-15,9.80665
298,230.071,0.8625954198473282,-0.0005637989530540093,-0.0009544343544780385,-0.7665150125451112,-0.6422254329484376,-0.0006882488552946518,-0.0004479918570723453,0.001139033219078509,0.0,1.2009682532858392e-15,9.80665
299,230.171,0.9111111111111111,-0.0006143363930472194,-0.0009313244503253612,-0.7665122105245306,-0.6422287591581427,-3.914540008360316e-05,-0.0009697420073605397,0.0012310143941419906,0.0,1.2009682532858392e-15,9.80665
300,230.27,0.9264705882352942,-0.0006806664570829658,-0.0009005837912054326,-0.7665081192796596,-0.6422336189884688,0.000863664114265269,-0.0016987627233931689,0.0010804376862683393,0.0,1.2009682532858392e-15,9.80665
301,230.363,0.959349593495935,-0.0007434849256327465,-0.0008650850874242983,-0.766504969457708,-0.6422373602075516,0.0015932446373626437,-0.002322257604449956,0.0010076801488175745,0.0,1.2009682532858392e-15,9.80665
302,230.47,0.9159663865546218,-0.0008185749759846972,-0.0007875816286714041,-0.7665051851790206,-0.6422371017427083,0.0017764510088600055,-0.002699959369376268,0.0013043221323750652,0.0,1.2009682532858392e-15,9.80665
303,230.58,0.8487394957983193,-0.0008957703548511986,-0.0007079051757478577,-0.7665054069485941,-0.6422368360311871,0.0019647940075956357,-0.0030882509034127143,0.0016092811808921515,0.0,1.2009682532858392e-15,9.80665
304,230.669,0.9243697478991597,-0.0009785282248486813,-0.0006446043958962973,-0.7664984783010859,-0.6422450393836062,0.0022222457267344086,-0.003212218008935454,0.001041401794180251,0.0,1.2006223744288928e-15,9.8038256848
305,230.792,0.8907563025210085,-0.0010995255031133319,-0.000557501354440684,-0.7664865833110648,-0.6422591235958562,0.002612333674915113,-0.003321480299346143,-9.239300852582726e-06,0.0,1.2000314980482763e-15,9.799000813
306,230.874,0.912,-0.0011689292094313835,-0.0004978566317613319,-0.7664810192985186,-0.6422656983883869,0.0024971222707537485,-0.003219448906369581,-0.00043990988773295664,0.0,1.1998969896039082e-15,9.797902468199998
307,230.973,0.9133858267716536,-0.0012250263945213806,-0.00042197053500109987,-0.7664801205450982,-0.6422667139598843,0.0014351053643039847,-0.0026661910191178055,-0.00029643953964113463,0.0,1.2003725730322095e-15,9.801785901599999
308,231.068,0.8888888888888888,-0.0012788570266784383,-0.0003491505431604873,-0.7664792581049473,-0.64226768849819,0.0004159982318523883,-0.0021352869858965074,-0.00015876597329042303,0.0,1.200828940968458e-15,9.8055124286
309,231.179,0.8650793650793651,-0.0013463064854373945,-0.0002832226219500477,-0.7664740340476528,-0.6422738146258414,0.0003290375561519973,-0.002025528456570494,-0.0007817618251105949,0.0,1.2009682532858392e-15,9.80665
310,231.274,0.8260869565217391,-0.0014054114884806464,-0.00023259612497913905,-0.7664682867954747,-0.6422805673150611,0.0005887063689514757,-0.002086127928246652,-0.0015522147439775542,0.0,1.2009682532858392e-15,9.80665
311,231.389,0.890625,-0.001466806366565549,-0.00017798449393312705,-0.7664646764964665,-0.6422847609107422,0.0007083229559939419,-0.0021643069237470606,-0.001964895877055838,0.0,1.2009682532858392e-15,9.80665
312,231.48,0.8888888888888888,-0.0015008874013667385,-0.00014430061208701788,-0.7664665997214319,-0.642282394036662,0.0005248763859272475,-0.0022330567501485173,-0.0015488235894591685,0.0,1.2009682532858392e-15,9.80665
313,231.589,0.8492063492063492,-0.0015417097397549887,-0.00010395398438122649,-0.7664689033645224,-0.6422795589896868,0.0003051436811220194,-0.0023154054433107266,-0.0010504512889311381,0.0,1.2009682532858392e-15,9.80665
314,231.674,0.8805970149253731,-0.001589204347589406,-9.273168066099095e-05,-0.7664601035734864,-0.6422899426406792,6.824265373872628e-05,-0.0021583274919539834,-0.001143870295956719,0.0,1.2009682532858392e-15,9.80665
315,231.769,0.8828125,-0.0016443592926405183,-8.286801717299716e-05,-0.7664488660733632,-0.6423032148124789,-0.000205204796278827,-0.001953480761032568,-0.001312081562820808,0.0,1.2009682532858392e-15,9.80665
316,231.868,0.8740157480314961,-0.0016976367801536283,-7.688395327288408e-05,-0.7664402184051237,-0.6423133993830749,-0.0004892467521130523,-0.001711060940288073,-0.0014749722415581135,0.0,1.2009682532858392e-15,9.80665
317,231.97,0.9291338582677166,-0.0017354369416168866,-8.81975433750879e-05,-0.766443774126572,-0.6423090527139759,-0.000778155699372251,-0.0013434856217355055,-0.0015923218671232296,0.0,1.2009682532858392e-15,9.80665
318,232.069,0.8650793650793651,-0.0017721253336253377,-9.917838082722534e-05,-0.7664472252679779,-0.6423048338880857,-0.0010585673246531976,-0.000986721341963947,-0.0017062200331128849,0.0,1.2009682532858392e-15,9.80665
319,232.194,0.9206349206349206,-0.0017945055136170663,-0.00011849492341336237,-0.7664453397283164,-0.6423070186854027,-0.0010475992634892705,-0.000758924974128636,-0.0014669223073870649,0.0,1.2009682532858392e-15,9.80665
320,232.268,0.8253968253968254,-0.001803472675798172,-0.00013090528892407158,-0.7664431070249265,-0.6423096554094667,-0.0009758278657682361,-0.0006638891948387189,-0.001256745476275718,0.0,1.2009682532858392e-15,9.80665
321,232.365,0.9609375,-0.00181013747282657,-0.00014699913879183534,-0.7664394931429994,-0.6423139457253557,-0.0008072655776096896,-0.0005370756925876685,-0.0011082376787311646,0.0,1.2009682532858392e-15,9.80665
322,232.47,0.8540145985401459,-0.0017914262729770982,-0.0001635350236746421,-0.7664320804608863,-0.6423228386286302,-0.00024538224045919264,-0.0003883949561366407,-0.0015943901385198798,0.0,1.2009682532858392e-15,9.80665
323,232.57,0.8560606060606061,-0.001773606082644267,-0.00017928348546779208,-0.7664250207636357,-0.6423313080603201,0.00028974474730320715,-0.0002467942547547037,-0.002057392481175818,0.0,1.2009682532858392e-15,9.80665
324,232.675,0.8409090909090909,-0.0017580042482211824,-0.00018799444109060404,-0.7664272331333575,-0.6423287086807801,0.00014417251389071267,-0.0005567946950794549,-0.001879527832248347,0.0,1.2009682532858392e-15,9.80665
325,232.77,0.8257575757575758,-0.0017448621150397007,-0.00019342511723384215,-0.7664322492405119,-0.6423227576297652,-0.00020910145290800142,-0.000980924179967899,-0.0015106412715144945,0.0,1.2009682532858392e-15,9.80665
326,232.874,0.9375,-0.0017297310859426642,-0.00019247732555647163,-0.7664365799029531,-0.642317631351648,-0.0006456424647871049,-0.0011728140828293327,-0.0011481233380055118,0.0,1.2009682532858392e-15,9.80665
327,232.966,0.921875,-0.0017142665931657761,-0.0001723704398852048,-0.7664371663968218,-0.6423169781171348,-0.0011710206766316713,-0.0005810434111832737,-0.0009429278788663559,0.0,1.2009682532858392e-15,9.80665
328,233.071,0.9083969465648855,-0.001696616900322593,-0.00014942236384735136,-0.766437835764824,-0.642316232577745,-0.001770637114062827,9.434702928217613e-05,-0.0007087374091967228,0.0,1.2009682532858392e-15,9.80665
329,233.167,0.8285714285714286,-0.001669181470973271,-0.0001328058151858026,-0.7664395548391153,-0.642314255847707,-0.0016671912615291004,0.00020818115121478122,-0.0006847741800205154,0.0,1.2009682532858392e-15,9.80665
330,233.271,0.944,-0.0016349134275655713,-0.00011656076569223524,-0.7664418626377795,-0.6423115932689989,-0.0012929066960212336,0.00012883596216506498,-0.0007353282708208966,0.0,1.2009682532858392e-15,9.80665
331,233.376,0.88,-0.0016076805861518233,-0.00010410802140850805,-0.7664418457716622,-0.6423116856279755,-0.0005157350143790826,-0.00015130672076232095,-0.0007493753641498188,0.0,1.2009682532858392e-15,9.80665
332,233.474,0.9124087591240876,-0.001602120687334016,-0.00010313180651858861,-0.7664355022130945,-0.6423192689877811,0.0012862245869565687,-0.0009521256663813231,-0.0006627416409056477,0.0,1.2009682532858392e-15,9.80665
333,233.561,0.9071428571428571,-0.0015971848587916751,-0.00010226516676937408,-0.7664298706866111,-0.6423260011541393,0.0028859234167142992,-0.001663056771165793,-0.0005858321110868152,0.0,1.2009682532858392e-15,9.80665
334,233.674,0.849624060150376,-0.0016100855561669695,-0.0001055170505033414,-0.7664215381534748,-0.6423359102675061,0.003420473974198106,-0.0017059291256591737,-0.0007969225812703312,0.0,1.2009682532858392e-15,9.80665
335,233.77,0.8709677419354839,-0.0016287159260611017,-0.00011001844472925302,-0.766414054833393,-0.6423447913763143,0.003261645358055827,-0.0013926125122234168,-0.0010997777748853023,0.0,1.2009682532858392e-15,9.80665
336,233.869,0.9596774193548387,-0.0016398695662908232,-0.00011531233471681528,-0.766409143741991,-0.6423506220995595,0.0029322340786457853,-0.001011038518045149,-0.0012583564729430111,0.0,1.2009682532858392e-15,9.80665
337,233.965,0.8768115942028986,-0.0016233337017546863,-0.00012265806578094595,-0.7664139051452503,-0.6423449813747097,0.0020507031977177125,-0.0004425965086557269,-0.0008903430686332476,0.0,1.2009682532858392e-15,9.80665
338,234.067,0.917910447761194,-0.001605764345685041,-0.0001304629050365848,-0.7664189641362132,-0.6423389881045569,0.0011140766367316352,0.00016137312632053414,-0.0004993288265541239,0.0,1.2009682532858392e-15,9.80665
339,234.178,0.9626865671641791,-0.0015751882977491534,-0.00015020772196782888,-0.7664206923873738,-0.6423369960586981,0.0012047490201504008,0.0001500603695125782,0.0003597381904133844,0.0,1.2005806898256155e-15,9.803485304183267
340,234.271,0.9104477611940298,-0.0015460154718854975,-0.00017024207586356272,-0.7664209683018887,-0.6423367327661188,0.0016251443644086491,-6.688323889508075e-05,0.0012140325486260678,0.0,1.2001357095564699e-15,9.799851764541833
341,234.367,0.917910447761194,-0.0015198725628921177,-0.00018990666203766784,-0.7664188801385141,-0.6423392824423005,0.0021105415420605072,-0.00026051165745591897,0.0016684521138671117,0.0,1.199858558619803e-15,9.797588655399998
342,234.462,0.9555555555555556,-0.0015099272432748056,-0.0002052916762430389,-0.7664072970948866,-0.6423531207978653,0.002797181112691586,-0.00033055386599151497,0.0004039550162855019,0.0,1.2003149265560517e-15,9.801315182399998
343,234.589,0.8776978417266187,-0.0014966319212600817,-0.00022585901102285257,-0.7663918123944583,-0.6423716204942519,0.0037151098018511075,-0.0004241892395075305,-0.0012864779457447974,0.0,1.2009250184287209e-15,9.8062969606
344,234.668,0.9133858267716536,-0.0014938629728551505,-0.00023182303891033384,-0.7663926902041649,-0.6423705775851599,0.002995817213862531,-0.00045181084553607613,-0.001928260925018941,0.0,1.2009682532858392e-15,9.80665
345,234.772,0.9682539682539683,-0.0014911489290838872,-0.00023851841067455373,-0.7663956247137492,-0.6423670803456655,0.001830508130037191,-0.0004829900876973688,-0.00270378672229563,0.0,1.2009682532858392e-15,9.80665
346,234.864,0.9523809523809523,-0.001488497854156314,-0.00024023692692025608,-0.7663984867186115,-0.6423636711470041,0.0008158480993568781,-0.00047512849766548815,-0.0031853483740104504,0.0,1.2009682532858392e-15,9.80665
347,234.962,0.8731343283582089,-0.00148418905946244,-0.00021711583887803205,-0.7664031145773296,-0.6423581672637195,-0.00016889942532030927,-0.00025640634609569684,-0.002484769500311442,0.0,1.2009682532858392e-15,9.80665
348,235.065,0.9701492537313433,-0.0014796604283045921,-0.00019281510348670915,-0.7664079785512884,-0.6423523825700633,-0.0012038891706445394,-2.652490107841218e-05,-0.0017484468065255736,0.0,1.2009682532858392e-15,9.80665
349,235.168,0.8582089552238806,-0.001484323051297623,-0.00019219128364483129,-0.766402133655166,-0.6423593455463619,-0.0015832825627432254,0.00014542760121743773,-0.0013123156183051574,0.0,1.2009682532858392e-15,9.80665
350,235.265,0.9166666666666666,-0.001492794676077046,-0.0002021155651909402,-0.7663918748565806,-0.6423715624535175,-0.001649512410964277,0.0002816449306123224,-0.0010348651663356027,0.0,1.2009682532858392e-15,9.80665
351,235.367,0.8939393939393939,-0.0014982636017166647,-0.00021329322634031832,-0.7663842285796835,-0.6423806688749608,-0.0016087906767218065,0.0003196352096071136,-0.0005981097245067603,0.0,1.2009682532858392e-15,9.80665
352,235.471,0.8740740740740741,-0.0014894618005483655,-0.00022779115038655485,-0.766389564349271,-0.6423743182539798,-0.0011058994392638415,-8.160986801220753e-05,0.00045338070991282294,0.0,1.2009682532858392e-15,9.80665
353,235.564,0.9375,-0.0014815909591190228,-0.00024075564015866706,-0.7663943357586137,-0.6423686393332949,-0.0006561986211525014,-0.00044041556242170523,0.0013936558099224131,0.0,1.2009682532858392e-15,9.80665
354,235.661,0.953125,-0.0014892198235457153,-0.0002461114884345379,-0.7663932826141049,-0.6423698760251929,0.00025024420699078795,-0.0008622681816918408,0.0012727662621664336,0.0,1.2012661312384258e-15,9.809082358070865
355,235.77,0.9083969465648855,-0.0015073975223049874,-0.00024717751247908863,-0.7663884424419066,-0.6423756077927009,0.001534084404459424,-0.0013651843957317136,0.00046885486666521344,0.0,1.2017815073786153e-15,9.813290723622046
356,235.879,0.8947368421052632,-0.0015254645666402814,-0.0002470663560438869,-0.7663838266570899,-0.6423810722404586,0.002462135377998779,-0.0015966215755836676,-6.613608452540547e-05,0.0,1.2020374079503498e-15,9.815380310365853
357,235.966,0.917910447761194,-0.0015396168189280807,-0.00024412408217068003,-0.7663806864263887,-0.6423847857738203,0.002340419922114872,-0.0011232659879435855,0.00015873129752169306,0.0,1.201612675275407e-15,9.811912104878049
358,236.058,0.8888888888888888,-0.0015545824190485067,-0.00024101271209786473,-0.7663773657226587,-0.6423887127286397,0.00221170932508826,-0.0006227060561864418,0.00039652209233003127,0.0,1.2011635326766174e-15,9.808244577235772
359,236.163,0.9312977099236641,-0.0015434953124920138,-0.0002338490757349493,-0.7663728870688616,-0.6423940845470315,0.0017685349506791816,-0.00026422027032822873,-0.0007453146367333394,0.0,1.2009682532858392e-15,9.80665
360,236.267,0.9312977099236641,-0.0015153450897439338,-0.00022455168890928904,-0.7663680312775552,-0.6423999476618013,0.0011489937582519934,-3.8858617655970653e-05,-0.002737673086579558,0.0,1.2009682532858392e-15,9.80665
361,236.366,0.9076923076923077,-0.001494242597753723,-0.00021556103946100076,-0.766365691946889,-0.6424027917638954,0.0005691365068778359,6.764978170394589e-05,-0.003932560037355856,0.0,1.2009682532858392e-15,9.80665
362,236.474,0.9230769230769231,-0.001499175802116031,-0.00020506454659120172,-0.7663743474491894,-0.6423924575901314,-1.4843352138868256e-05,-0.00034643216058602823,-0.0017914374475372055,0.0,1.2009682532858392e-15,9.80665
363,236.566,0.8846153846153846,-0.0015033781613876284,-0.00019612308970211036,-0.7663817206548528,-0.6423836544050733,-0.0005123076764866131,-0.0006991686299442835,3.248179564231332e-05,0.0,1.2009682532858392e-15,9.80665
364,236.664,0.9307692307692308,-0.001506697645885774,-0.0001916748566208544,-0.7663866779629596,-0.6423777338217098,-0.0008715570410934704,-0.0008197063760321949,-5.5893436572949776e-05,0.0,1.2009682532858392e-15,9.80665
365,236.763,0.9029850746268657,-0.0015094843373608562,-0.00018966761494110487,-0.7663902670352085,-0.642373445912782,-0.0011508844839963476,-0.0008164765763684131,-0.0011400663248163994,0.0,1.2009682532858392e-15,9.80665
366,236.861,0.8955223880597015,-0.0015136356191661252,-0.00018681350529862093,-0.7663939758329434,-0.6423690121030411,-0.0014161889405778897,-0.0007892363706143689,-0.0019347185524270889,0.0,1.2009682532858392e-15,9.80665
367,236.994,0.9402985074626866,-0.001534218833557148,-0.00017363235912211264,-0.7664006834406413,-0.6423609638214475,-0.001656010738540321,-0.0004941952528420609,-2.307612000088761e-05,0.0,1.2009682532858392e-15,9.80665
368,237.074,0.9701492537313433,-0.0015465997143938542,-0.00016570385014376114,-0.766404718091888,-0.6423561227498122,-0.001800264451600442,-0.00031672691132486836,0.0011267839897292535,0.0,1.2009682532858392e-15,9.80665
369,237.164,0.9104477611940298,-0.001545635215451747,-0.0001614367607437367,-0.7664077827012074,-0.6423524698073457,-0.0016890509614167586,-0.00020608544816267473,0.0005161007604447058,0.0,1.2009682532858392e-15,9.80665
370,237.274,0.9347826086956522,-0.0015374554052610821,-0.0001584084940072417,-0.7664108352533383,-0.6423488480868249,-0.0014245554951606931,-0.00011269949880582424,-0.0011254622625283504,0.0,1.2009682532858392e-15,9.80665
371,237.39,0.9312977099236641,-0.0015446721275791005,-0.00016334443864653752,-0.7664108299567922,-0.6423488350884143,-0.0011507085594349223,-0.00029327511787399026,-0.001748004652560065,0.0,1.2009682532858392e-15,9.80665
372,237.468,0.8153846153846154,-0.00156829406305728,-0.00017629455999031423,-0.7664070064123623,-0.6423533357473935,-0.0009725832613185594,-0.000745301635470103,-0.0008532669767740127,0.0,1.2009682532858392e-15,9.80665
373,237.562,0.9692307692307692,-0.0015967615237617583,-0.00019190111648153543,-0.7664023985511262,-0.6423587596184711,-0.0007579194405116172,-0.0012900515412911694,0.00022500663250683188,0.0,1.2009682532858392e-15,9.80665
374,237.665,0.9236641221374046,-0.0016267537629359495,-0.00018440635406627272,-0.7664049403748154,-0.6423556533731607,-0.0005702575100586151,-0.0015024425499141204,0.0012378310449419514,0.0,1.2009682532858392e-15,9.80665
375,237.764,0.8592592592592593,-0.001654961090310413,-0.00016450034797367216,-0.7664113037645734,-0.6423479942122559,-0.00041444295505062246,-0.0015080033726990218,0.0021242039948701575,0.0,1.2009682532858392e-15,9.80665
376,237.859,0.9465648854961832,-0.001678808740614169,-0.0001472753642411156,-0.7664165006622061,-0.642341737254493,-0.0003260313391219653,-0.001425965261412818,0.002845618559047592,0.0,1.2009682532858392e-15,9.80665
377,237.969,0.8625954198473282,-0.0016779503447169213,-0.0001439249725497116,-0.7664144772405856,-0.6423441544966629,-0.0007639780708122238,-0.0005584014097695809,0.0025390240196139155,0.0,1.2009682532858392e-15,9.80665
378,238.059,0.8611111111111112,-0.0016772480208009915,-0.00014118374298401697,-0.7664128217138053,-0.6423461322402565,-0.0011222981240134062,0.00015142355975682632,0.0022881739418954094,0.0,1.2009682532858392e-15,9.80665
379,238.165,0.855072463768116,-0.0016645294619321096,-0.00015084466749193824,-0.7664059423553289,-0.6423543703514775,-0.00031106504871423763,0.00030967663204582735,0.0008471406721679913,0.0,1.2009682532858392e-15,9.80665
380,238.261,0.8923076923076924,-0.0016467419249692685,-0.00016638920335303897,-0.7663971132732441,-0.6423649462401897,0.0010737780772846818,9.570015752985352e-05,-0.0010618717257541536,0.0,1.2009682532858392e-15,9.80665
381,238.385,0.9846153846153847,-0.0016399470495214881,-0.0001837587613976626,-0.7663905698342615,-0.6423727661161756,0.0023788938506405376,-0.00025166493787216195,-0.002121548078595195,0.0,1.2009682532858392e-15,9.80665
382,238.462,0.8913043478260869,-0.0016602886673311534,-0.00019043295065433193,-0.7663938848687656,-0.6423687563654155,0.002455201366519821,-0.0005751077023083735,-0.0006451764327277854,0.0,1.2009682532858392e-15,9.80665
383,238.562,0.9111111111111111,-0.0016867063527982581,-0.00019910072890974882,-0.7663981901083813,-0.642363548896896,0.0025543020364929415,-0.0009951632405373252,0.0012721893411264751,0.0,1.2009682532858392e-15,9.80665
384,238.674,0.9037037037037037,-0.0016957924952420778,-0.00020724034472684733,-0.7663943530235959,-0.6423681006809523,0.0021738176089358963,-0.0012182792833267877,-5.387225043608935e-05,0.0,1.2009682532858392e-15,9.80665
385,238.765,0.9436619718309859,-0.0016952845424326754,-0.00021325019503880125,-0.7663879028345791,-0.64237579553645,0.0016755199660937283,-0.0013043653420302397,-0.002468142087062697,0.0,1.2009682532858392e-15,9.80665
386,238.852,0.8928571428571429,-0.0016945100831527934,-0.0002189815420619209,-0.766382149980551,-0.6423826592112645,0.0011966938644181037,-0.0013732324647716678,-0.004656714972574073,0.0,1.2009682532858392e-15,9.80665
387,238.966,0.8357142857142857,-0.0016828980521394537,-0.00022596567184414952,-0.7663897943114553,-0.642373566999838,0.0004800500881391337,-0.0009705490698105933,-0.003137327275704344,0.0,1.2009682532858392e-15,9.80665
388,239.068,0.9029850746268657,-0.00167250834018015,-0.0002322146300703541,-0.7663966339759485,-0.6423654318632986,-0.00016115750116310265,-0.000610253400634895,-0.0017778751258735338,0.0,1.2009682532858392e-15,9.80665
389,239.164,0.9701492537313433,-0.0016657257710403842,-0.00022364981853104213,-0.766403200948802,-0.6423576172420479,-0.0005400820895206378,-0.00037184956527492566,-0.0013327559416021549,0.0,1.2009682532858392e-15,9.80665
390,239.274,0.9285714285714286,-0.001659591305283675,-0.0002059415028413829,-0.7664107964509881,-0.6423485766334757,-0.0008515475498302784,-0.00015370736303497193,-0.0012786827264278855,0.0,1.2009682532858392e-15,9.80665
391,239.365,0.8962962962962963,-0.0016573458146604066,-0.00019786515544958962,-0.7664151434510876,-0.6423433985600423,-0.001017631171504046,-8.6760222678985e-05,-0.0011497856017668024,0.0,1.2009682532858392e-15,9.80665
392,239.474,0.8518518518518519,-0.0016694084714628827,-0.00022246401594434788,-0.7664102531893547,-0.6423491934521693,-0.0007390548191033909,-0.0005984387202187262,-0.0005565652963706646,0.0,1.2009682532858392e-15,9.80665
393,239.565,0.9037037037037037,-0.0016794791298943104,-0.0002430006792931883,-0.7664061704937796,-0.6423540313896332,-0.0005064819010440656,-0.001025619851192387,-6.13079771865999e-05,0.0,1.2009682532858392e-15,9.80665
394,239.659,0.9140625,-0.0017027402571479454,-0.0002541271506005849,-0.7664021536418711,-0.6423587577884318,-0.0004349850777070924,-0.0010616427219938902,0.00023957887105639515,0.0,1.2009682532858392e-15,9.80665
395,239.761,0.9609375,-0.0017355292945985148,-0.00026027910481478866,-0.766397912592311,-0.6423637273319636,-0.0004564599341247194,-0.0008628447756637229,0.000442388380877639,0.0,1.2009682532858392e-15,9.80665
396,239.858,0.9064748201438849,-0.0017613501919610344,-0.0002679041202861293,-0.7663954572864116,-0.6423665842786425,-0.0004631227751511181,-0.0006586633252993181,0.0007899601327391232,0.0,1.2009682532858392e-15,9.80665
397,239.961,0.8671875,-0.0017392440969571199,-0.00029239505247087436,-0.7664074265033999,-0.6423523519278768,-0.00034308710795978147,-0.0003020928150406159,0.0025882079832784503,0.0,1.2009682532858392e-15,9.80665
398,240.074,0.9032258064516129,-0.0017149917791372932,-0.000319263745061903,-0.7664205577802898,-0.6423367377954835,-0.00021139749249745292,8.909619135967343e-05,0.004561043003772879,0.0,1.2009682532858392e-15,9.80665
399,240.158,0.8790322580645161,-0.0016952284881280636,-0.0003278626685604292,-0.7664129831426342,-0.6423458230786137,0.0004545743100299376,0.00018722859111214196,0.00291111567581333,0.0,1.2009682532858392e-15,9.80665
400,240.264,0.905511811023622,-0.0016693613728609095,-0.0003326318106482038,-0.766394155049999,-0.6423683520979889,0.001598722018099565,0.00020804440291284345,-0.0008373232530319453,0.0,1.2009682532858392e-15,9.80665
401,240.361,0.8721804511278195,-0.0016511379782076616,-0.00033589675681479353,-0.7663796483630101,-0.6423857060866436,0.002422042573436835,0.00012826742335383593,-0.0038158843531254615,0.0,1.2009682532858392e-15,9.80665
402,240.459,0.8828125,-0.001668288536423395,-0.0003320191683619418,-0.766382766936401,-0.6423819429129481,0.0017936173165532402,-0.0005974793302051137,-0.003876946360036078,0.0,1.2009682532858392e-15,9.80665
403,240.561,0.875,-0.0016861391174234424,-0.00032798331099264755,-0.7663860127985016,-0.6423780261403262,0.001139542049184664,-0.0013528484002357842,-0.003940500693759366,0.0,1.2009682532858392e-15,9.80665
404,240.656,0.936,-0.0016970914310893666,-0.00032290854549063645,-0.7663838512796471,-0.6423805787146004,0.0012539829195012436,-0.0014939969503320355,-0.0036584712127222733,0.0,1.2009682532858392e-15,9.80665
405,240.759,0.8709677419354839,-0.00170486539623213,-0.0003164553049298004,-0.7663777602543036,-0.6423878280426648,0.0019011047598905648,-0.0012405384238809434,-0.003106054048985261,0.0,1.2009682532858392e-15,9.80665
406,240.858,0.9516129032258065,-0.0017077032642955484,-0.0003120958889740861,-0.7663734189358022,-0.6423930016507434,0.002382200212916223,-0.0009441224136388582,-0.0025812116768210444,0.0,1.2009682532858392e-15,9.80665
407,240.964,0.8740157480314961,-0.0016611231305895004,-0.0003271636468445047,-0.7663849721897178,-0.6423793305215819,0.0013887350552248847,-6.140865152694187e-05,-0.0020848046895116145,0.0,1.2009682532858392e-15,9.80665
408,241.062,0.943089430894309,-0.00161805847867258,-0.00034109421544168675,-0.7663956534999417,-0.6423666911757534,0.0004702484000006467,0.0007546852040106421,-0.0016258623804896028,0.0,1.2009682532858392e-15,9.80665
409,241.156,0.9105691056910569,-0.0015864528093864658,-0.0003585090336705776,-0.7664037820123685,-0.6423570627941305,0.00045845710416334056,0.0007654049957635887,-0.0014597585131414256,0.0,1.2009682532858392e-15,9.80665
410,241.266,0.904,-0.0015568366293645345,-0.00038196666459017984,-0.7664116861354172,-0.6423476908255711,0.0011049179916735833,0.00019148042774758383,-0.0014735958757810298,0.0,1.2009682532858392e-15,9.80665
411,241.358,0.8604651162790697,-0.0015361781943751083,-0.0003989914493417872,-0.766417481627978,-0.6423408166441484,0.0015990988533012673,-0.0002683753354940999,-0.00152613319782547,0.0,1.2009682532858392e-15,9.80665
412,241.457,0.824,-0.0015547497036734427,-0.00039156574497676005,-0.7664156278248413,-0.6423429879875429,0.0016694629648700385,-0.0005632148166187231,-0.0019891936304047893,0.0,1.2009682532858392e-15,9.80665
413,241.558,0.872,-0.001573696394977806,-0.0003839900263821356,-0.7664137365711363,-0.6423452031964604,0.0017412485736422263,-0.0008640106508974083,-0.0024616088191978785,0.0,1.2009682532858392e-15,9.80665
414,241.674,0.9296875,-0.0015986033334102327,-0.0003774503626872098,-0.7664096532790357,-0.6423500171856046,0.002005760511383468,-0.0012421418214217414,-0.0028070696629584183,0.0,1.2009682532858392e-15,9.80665
415,241.76,0.8320610687022901,-0.0016183440111244,-0.00037347788280741185,-0.7664058514421218,-0.6423545060942597,0.0022756528723985,-0.0015357182221487214,-0.0029832989610731626,0.0,1.2009682532858392e-15,9.80665
416,241.855,0.9349593495934959,-0.001638509189358161,-0.0003699060626277109,-0.7664021520782496,-0.6423588714471592,0.0024955936837941384,-0.001802094154059886,-0.0031688542161136864,0.0,1.2009682532858392e-15,9.80665
417,241.956,0.983739837398374,-0.0016340630385166246,-0.00037898317805140625,-0.7664061095151197,-0.6423541556630181,0.0014962592935189672,-0.001171828802209352,-0.003222357674501836,0.0,1.2009682532858392e-15,9.80665
418,242.062,0.8780487804878049,-0.0016293967811977833,-0.0003885096556247917,-0.7664102628647061,-0.6423492064242167,0.00044745290372498643,-0.0005103621953165636,-0.003278509818948817,0.0,1.2009682532858392e-15,9.80665
419,242.156,0.8861788617886179,-0.0016209111702418415,-0.000385395997733076,-0.7664116102014097,-0.6423476220596634,0.0003630042551086162,-0.00025580620835534586,-0.003191690351814001,0.0,1.2009682532858392e-15,9.80665
420,242.258,0.968,-0.0016086410658832956,-0.00037387368798677664,-0.7664114269281722,-0.642347878312177,0.0008669990459458039,-0.00021345527213997335,-0.0030012550204991917,0.0,1.2009682532858392e-15,9.80665
421,242.364,0.888,-0.0015988016821502809,-0.00036226443789339337,-0.7664113555294801,-0.642347994988608,0.0013630017917603712,-0.0002589550393168707,-0.002912376993335863,0.0,1.2009682532858392e-15,9.80665
422,242.453,0.9606299212598425,-0.0016053726950074824,-0.00035437581978066965,-0.7664119020475353,-0.6423473308052963,0.0016380731090903696,-0.0007531034830027077,-0.0033930966127664573,0.0,1.2009682532858392e-15,9.80665
423,242.56,0.9212598425196851,-0.0016132726767571516,-0.00034489175081368716,-0.7664125590973319,-0.6423465322927754,0.0019687768276781237,-0.0013471920613665844,-0.003971040424890885,0.0,1.2009682532858392e-15,9.80665
424,242.659,0.8712121212121212,-0.0016335028459554459,-0.00032360859670521613,-0.7664089551793329,-0.6423507906859889,0.0013940922450273966,-0.0024798574578017347,-0.0030681574670597487,0.0,1.2009682532858392e-15,9.80665
425,242.764,0.905511811023622,-0.0016638666350018599,-0.0002924124948377834,-0.766402229223315,-0.6423587522056969,0.00017745470395288,-0.004083082224242702,-0.0011194705602243465,0.0,1.2009682532858392e-15,9.80665
426,242.859,0.8790322580645161,-0.0018306700543216847,-4.664055567394585e-05,-0.7663946742487282,-0.6423660927339525,-0.0018734312430044749,-0.009087472409017097,0.00032803568989013456,0.0,1.2009682532858392e-15,9.80665
427,242.978,0.7258064516129032,-0.003523126243077328,0.0025775230723811674,-0.7663695634274506,-0.642376749047007,-0.014558699032759467,-0.05319531702437215,-0.0012189904695844834,0.0,1.2009682532858392e-15,9.80665
428,243.055,0.625,-0.004618244953448603,0.004275511302299144,-0.7663533152489769,-0.6423836443083951,-0.022766813484953696,-0.08173568706960127,-0.0022200073963033317,0.0,1.2009682532858392e-15,9.80665
429,243.163,0.6180555555555556,-0.007762040710027868,0.009026436546591288,-0.7662569894418433,-0.6423772344505255,-0.03194322521984727,-0.11313311207294968,-0.002369484033435428,0.0,1.2012757011586803e-15,9.809160502400001
430,243.251,0.6095890410958904,-0.011224309460031563,0.014224825148270111,-0.7661373078829784,-0.6423630031905784,-0.03811155857145893,-0.13387999498844505,-0.0017885011099277757,0.0,1.201698441983837e-15,9.812612443199999
431,243.361,0.6158940397350994,-0.015554492898137453,0.020700934371978542,-0.7659756851540555,-0.6423370885263161,-0.044109814405441254,-0.1542824251651763,-0.0010966526083647998,0.0,1.2022268680152827e-15,9.8169273692
432,243.449,0.63125,-0.019033976652553644,0.025738895098801375,-0.7657678512060176,-0.642263269611294,-0.03772230148315264,-0.1344673693180033,-0.000767790805548328,0.0,1.2026496088404394e-15,9.820379310000002
433,243.572,0.65625,-0.023897345991111027,0.03278059020560824,-0.7654773560286465,-0.6421600909005246,-0.028794300466774937,-0.10677132534980477,-0.00030813169479363875,0.0,1.203240485221056e-15,9.825204181800002
434,243.66,0.53125,-0.02605537692638896,0.03603266601116431,-0.7652997788892982,-0.642126048483268,-0.023968622175743474,-0.08794547957950126,-0.00038905857650207607,0.0,1.2039425262256174e-15,9.830936781640625
435,243.761,0.5714285714285714,-0.027860896068427544,0.03885791393548339,-0.7651113395379144,-0.6421071839483738,-0.01922348787775235,-0.06684107199543962,-0.000690117492467844,0.0,1.2048901652379758e-15,9.83867484140625
436,243.874,0.5930232558139535,-0.029729074284773546,0.04181016866717638,-0.7649115020479825,-0.6420878656016384,-0.014302884236161193,-0.04565272876443144,-0.0011474436984424644,0.0,1.2059591623384288e-15,9.847403865163935
437,243.957,0.6610169491525424,-0.030549437829038135,0.04322036518111342,-0.7648046579319836,-0.6420801716988565,-0.01209971459857254,-0.03889645292561042,-0.0019212341738567384,0.0,1.2067762145107462e-15,9.854075602459018
438,244.056,0.5846153846153846,-0.03152794374328164,0.044902406806171184,-0.7646772173598884,-0.6420709946340922,-0.00947183756096627,-0.03083776246725601,-0.00284418907826672,0.0,1.2077507707162816e-15,9.862033457786888
439,244.154,0.717948717948718,-0.03197107435387143,0.04572088231811136,-0.7646185362041701,-0.6420637950668489,-0.005917453511906007,-0.017839570383888854,-0.002866156350159219,0.0,1.2081740628055542e-15,9.8654899
440,244.258,0.7282051282051282,-0.0320053432828225,0.0458870776759962,-0.764612242918428,-0.6420577184992248,-0.001354722188314175,0.00012019489813370685,-0.002149667956933613,0.0,1.2081740628055542e-15,9.8654899
441,244.355,0.71,-0.03198430514056181,0.04597088060980143,-0.764611157878273,-0.642053925868395,0.002577952603694563,0.015597457837951821,-0.001419876160404718,0.0,1.208207555944092e-15,9.865763392231075
442,244.456,0.7236842105263158,-0.03125286391738417,0.045104878155838475,-0.7646740819244396,-0.6420750772495308,0.0023493650814600284,0.014661885731189506,0.00016371386201725598,0.0,1.2086908140858524e-15,9.86970949442231
443,244.554,0.6016597510373444,-0.0305431486711325,0.04426459854704262,-0.764735136939532,-0.642095600371821,0.0021275672876086655,0.013754102894924949,0.001700266557040778,0.0,1.2091597180253825e-15,9.87353838565737
444,244.648,0.6141732283464567,-0.03057875783222159,0.04347197074135297,-0.7694608480823049,-0.6362979341825288,0.015433738931083994,0.00625457435101177,0.14173672488519934,0.0,1.2093750310588401e-15,9.87529655
445,244.754,0.5035211267605634,-0.03136077567687212,0.0425919865865115,-0.7796231668930347,-0.623735657700296,0.04443883816245974,-0.009067162089049927,0.4431464235018971,0.0,1.2093750310588401e-15,9.87529655
446,244.834,0.35135135135135137,-0.03195097782377831,0.04192784760172535,-0.7872928414671719,-0.6142546943174769,0.06632947909180448,-0.020630736760797012,0.6706254413258672,0.0,1.2093750310588401e-15,9.87529655
447,244.86,1.0,-0.03199032304712703,0.041875286222774304,-0.7915088122114131,-0.6084550309158602,0.0669574163108988,-0.02171716047031559,0.7237899422645799,0.0,-0.00043149259999973605,9.87529655
448,244.954,0.2995391705069124,-0.03138088106127109,0.04249025713054071,-0.8152472881740547,-0.5740853599950315,0.037248648330563516,-0.012473144570829322,0.8136213421821769,0.0,-0.004118792999999505,9.87529655
449,245.034,0.4595959595959596,-0.030862207030755467,0.043013636626512045,-0.8354502464401298,-0.5448345762326281,0.01196459047496247,-0.004605896996799523,0.8900735974311851,0.0,-0.00725692099999888,9.87529655
450,245.054,1.0,-0.03073253852312647,0.04314448150050497,-0.8405009860066521,-0.537521880292022,0.0056435760110577216,-0.0026390851032906774,0.9091866612434507,0.0,-0.008041452999999282,9.87529655
451,245.154,0.33611111111111114,-0.02847627648642603,0.044665741800704095,-0.8646787014655106,-0.4968475687235268,-0.013442606601609904,0.005787550680242325,0.9682349028836297,0.0,-0.011972777510039015,9.87529655
452,245.234,0.3028391167192429,-0.025618810458010774,0.046450264467926376,-0.8833165944606998,-0.46161739315677003,-0.02051737033818199,0.011607636532084825,0.9915714091565254,0.0,-0.015123508433733987,9.87529655
453,245.25,1.0,-0.02504731725232813,0.04680716900137058,-0.887044173059735,-0.45457135804342363,-0.021932323085495406,0.012771653702452498,0.9962387104111012,0.0,-0.015753654618472536,9.87529655
454,245.381,0.24253731343283583,-0.020171440273446344,0.04960495798342479,-0.9158924951011929,-0.39537221525775607,-0.029715060705386098,0.019792076066670824,1.0296063636878559,0.0,-0.019613299999998793,9.874007229482071
455,245.441,0.4,-0.017670565556948577,0.050717228373801576,-0.9268323189600187,-0.36620461940975907,-0.02810806441918555,0.01959356187705513,1.038298060219601,0.0,-0.019613299999998793,9.871663010358565
456,245.554,0.23529411764705882,-0.012960584840877984,0.052812004275677775,-0.94743565389414,-0.3112723138960337,-0.02508155474684131,0.019219693486612257,1.054667422021054,0.0,-0.019613299999998793,9.867248064342629
457,245.634,0.39325842696629215,-0.009690581989857233,0.05377899966186231,-0.9598489221183351,-0.27119896408908284,-0.017424341551960144,0.01943267829716215,1.062886116504669,0.0,-0.019613299999998793,9.866862831
458,245.674,1.0,-0.008097042774258526,0.05393076262575063,-0.9646585224955704,-0.2504016464651159,-0.010050666145977214,0.019846244528889962,1.0648288846015939,0.0,-0.019613299999998793,9.868431895
459,245.754,0.4044943820224719,-0.004909964343063377,0.05423428855352707,-0.9742777232500341,-0.2088070112172115,0.0046966846659781646,0.020673376992344998,1.0687144207954407,0.0,-0.019613299999998793,9.871570023
460,245.835,0.3220338983050847,-0.0016830474314769583,0.05454160855540084,-0.9840171640139327,-0.16669244302869096,0.019628377363089144,0.02151084861159357,1.0726485261917122,0.0,-0.019613299999998793,9.8747473776
461,245.954,0.5084745762711864,0.0027021074637543947,0.050805328099323525,-0.9911065654657816,-0.10308459103406037,0.05319387198563594,0.020081876996028834,1.0753634759629394,-0.004102383466136091,-0.019613299999998793,9.87529655
462,246.042,0.41044776119402987,0.005909846729848935,0.04762945210482377,-0.9956373429528674,-0.055875699674924395,0.07916200840734638,0.01876294992834449,1.0770689837961085,-0.00754057151394455,-0.019613299999998793,9.87529655
463,246.154,0.4552238805970149,0.012984873533422675,0.04453587093189982,-0.9985477721734438,-0.013235311069813358,0.20688699841499747,0.01907056561112417,0.7074826688766339,-0.01192488640000008,-0.019613299999998793,9.8731783136
464,246.239,0.5263157894736842,0.020793595315596165,0.04296118269103522,-0.9984285124004175,0.0049065812630376265,0.3809947451949324,0.020923106804490322,0.12395703983300022,-0.015259147400000393,-0.019613299999998793,9.8698440526
465,246.354,0.5337837837837838,0.03135993760953821,0.04119513615596871,-0.9982042911145286,0.026946121935934264,0.5921502633094013,0.027261090427655732,-0.634469925880415,-0.025105024000026222,-0.022437615200012282,9.836619122399862
466,246.434,0.5238095238095238,0.03874134400102509,0.04700135715718345,-0.9968346500569718,-0.006086605534460363,0.26797594499586724,0.1056367458403141,-0.5626928110122652,-0.13493950400000437,-0.07892391920000111,9.259203570399977
467,246.467,1.0,0.04178617413751545,0.04939642332018612,-0.9962696731207292,-0.019712605616007243,0.13425403869144514,0.13796670369805725,-0.5330847511291337,-0.1802462270000256,-0.10222451960001207,9.021019655199865
468,246.554,0.4444444444444444,0.049813453588258026,0.055710688659007614,-0.9947801884706362,-0.05563569674006405,-0.21828553247454918,0.22320022895932948,-0.4550271387100151,-0.29969122400001064,-0.16365337520000445,8.393080242399945
469,246.642,0.5740740740740741,0.05272448302396415,0.06796009991431332,-0.9915314435853083,-0.08928319003851301,-0.3340035967081758,0.2094286458492256,-0.49380057430267643,-0.310125499599998,-0.1615351387999977,8.161564849200005
470,246.754,0.47435897435897434,0.04916907171890057,0.09172232439326364,-0.9849682401793548,-0.1283596567131003,-0.14551781325042862,0.05252841925621535,-0.7072546453475883,-0.1695373652000046,-0.06927417560000199,8.429560980399993
471,246.914,0.5256410256410257,0.03708997739592067,0.09870469854297631,-0.9745161227892221,-0.18991804506927637,0.18301268149743974,-0.08573514139984671,-0.881062025567926,-0.0390312484063758,-0.01269785358565337,8.9068214894422
472,246.954,0.48,0.031445228071767514,0.09033891927281706,-0.9714995512450055,-0.20745821635908093,0.28736971386254917,-0.08809617399219577,-0.8753412430029925,-0.03277999741035678,-0.026763168326696132,9.06153995159367
473,247.074,0.46923076923076923,0.014510980099316083,0.06524158146235123,-0.96244983661236,-0.2600787302284697,0.6004408109577293,-0.09517927176923957,-0.8581788953082,-0.014026244422308619,-0.06895911254980444,9.52569533804786
474,247.206,0.5291005291005291,-0.006216352367801475,0.03213672008108681,-0.9516488837813436,-0.3010004365052795,0.5914502003824916,-0.11663248865719153,-0.6222524168979873,-0.00980665,-0.053641193975904354,9.820355679518057
475,247.311,0.5925925925925926,-0.02313347904112404,0.004678759707166802,-0.9428841167426688,-0.33008252716149095,0.5120185929608542,-0.13649200854531485,-0.39018746671903787,-0.00980665,-0.02882918795180317,10.010581059036166
476,247.394,0.5494736842105263,-0.03035267066124502,-0.009152851647095964,-0.9377074456131866,-0.3456992622378242,0.37792439782616827,-0.08197229492662772,-0.2870827035903888,-0.008080679599999563,-0.01616135919999789,10.0812362
477,247.486,0.48484848484848486,-0.03230910800897528,-0.01674899966886819,-0.9336904198607968,-0.3557666041345612,0.15923406934739187,0.04744683730601654,-0.2517270822525041,-0.0044718324000001695,-0.008943664799999104,10.0812362
478,247.578,0.5171717171717172,-0.03426554535670615,-0.024345147690642763,-0.9296733941084058,-0.3658339460313013,-0.05945625913145214,0.1768659695387008,-0.21637146091460852,-0.0008629851999996611,-0.001725970399998087,10.0812362
479,247.68,0.562,-0.020473775044554714,-0.022988166988696362,-0.926849220058267,-0.3734673747832355,-0.1469560661722785,0.24132718382374085,-0.17210737391123276,0.003113222222222591,-0.0031132222222213595,10.056330422222219
480,247.754,0.51,-0.00728363207075107,-0.02005272492371193,-0.9251254076929881,-0.37830144412226674,-0.17952003785305137,0.27232685767941606,-0.13898360315296812,0.0059929527777774095,-0.0059929527777761804,10.03329257777778
481,247.873,0.516,0.013771334247741417,-0.01617459320537098,-0.9226142628639957,-0.3849562603228553,-0.2077446289420698,0.3135330758748515,-0.08622571640843762,0.00897624818548437,-0.011467453629030035,10.017730232661282
482,247.994,0.592,0.03443893594168346,-0.016228441725688138,-0.9212990609519512,-0.386413679909611,-0.12188839497825694,0.3144123198524598,-0.034995057297148954,0.004191552016128978,-0.021036845967740806,10.103854763709679
483,248.074,0.5903614457831325,0.04810346598726606,-0.016264044053170557,-0.9204295059687813,-0.38737726310746606,-0.06512394277077288,0.3149936381847629,-0.0011235471409223458,0.0010281165322573935,-0.027363716935483968,10.160796602419367
484,248.174,0.6244979919678715,0.06472018189083008,-0.022209939879066144,-0.9209306550332963,-0.383034431902253,-0.021125076353545717,0.3516581203937591,0.07897541874648283,0.0,-0.02941994999999875,10.205427615600005
485,248.301,0.6450939457202505,0.08561639056814357,-0.032394524795575155,-0.9222757471025351,-0.3750437365028839,0.022724967837331397,0.41425805723666825,0.1975500415302751,0.0,-0.029419949999998744,10.250263619399998
486,248.39,0.5762004175365344,0.10013471799505015,-0.04227973752514695,-0.9244113544017414,-0.3646195419686544,0.06389312952756399,0.4216047012805973,0.2856444668769752,0.0,-0.029419949999998744,10.253440974000004
487,248.474,0.5280665280665281,0.11369234045064243,-0.054786764667415444,-0.9278062874157076,-0.3492030842861019,0.11481737500428864,0.3863119175434133,0.37456930589675397,0.0,-0.029419949999998748,10.223785664400003
488,248.594,0.5662393162393162,0.13306037253005998,-0.07265394629922758,-0.9326561917213736,-0.327179573311027,0.18756629711389528,0.335893655061722,0.5016047902107237,0.0,-0.029419949999998755,10.1814209364
489,248.685,0.5,0.13241648227625477,-0.08963210774651892,-0.9394244132819242,-0.3000072924605353,0.23400725066662237,0.1836487857997278,0.6194855248928175,-0.006668522000000624,-0.02608568899999844,10.195974005000002
490,248.794,0.4503464203233256,0.13034895507040078,-0.11025850136841725,-0.9477926976540905,-0.2665749338971306,0.28889645433426747,-0.008350169718295053,0.762505015373252,-0.01521992080000132,-0.021809989599998088,10.217352502000004
491,248.874,0.38440111420612816,0.12323580371426507,-0.12462699706859784,-0.9543156443630659,-0.23863415851208664,0.30759490346908536,-0.13996305805444834,0.8632040300369273,-0.020554738400000036,-0.018671861599998712,10.2264530732
492,248.983,0.4729064039408867,0.0957544714521383,-0.14175566325584105,-0.9644146971312829,-0.18974530695292424,0.264442218065258,-0.2897073630392685,0.9868332438469044,-0.024830437800000382,-0.014396162199998366,10.2179016744
493,249.074,0.43548387096774194,0.07281134084797725,-0.15605574236629194,-0.9728460164148404,-0.14892984372463233,0.22841566419600728,-0.41472325068714694,1.090046624183675,-0.028400058400000705,-0.010826541599998045,10.2107624332
494,249.183,0.3870967741935484,0.036593187453995035,-0.16302059876794828,-0.9786031229980268,-0.09455810849836987,0.12778601719439203,-0.4707746717929835,1.119644920349121,-0.026164142200000063,-0.006550842199998814,10.192443611
495,249.26,0.304,0.009074525549832728,-0.16569158915948878,-0.9817092456807647,-0.05493541667426778,0.043980009555820376,-0.4896374416351309,1.1197458171844483,-0.023143694000000135,-0.0035303939999988872,10.17734137
496,249.375,0.30952380952380953,-0.03030175114891303,-0.16532366068080037,-0.9847629806317317,0.0038329626781276657,-0.0870609659701661,-0.48949851095675906,1.1159693956375114,-0.017651969999999555,0.001961330000001691,10.169496050000001
497,249.474,0.25396825396825395,-0.058859714633806216,-0.1515037940929248,-0.9824788603346036,0.05315928561345626,-0.21808113655447328,-0.40164066791534836,1.1005477581024177,-0.009885103200000375,0.009728196800000874,10.208330383999998
498,249.581,0.31007751937984496,-0.08972539233970393,-0.13656717060905782,-0.9800101646599295,0.10647157403851366,-0.35968879567085976,-0.3066832011938142,1.0838799276351938,-0.0014906108000004269,0.018122689200000826,10.250302845999997
499,249.681,0.48623853211009177,-0.1093870478749032,-0.10802949930315332,-0.9727443863750344,0.1571045514366677,-0.4652482253313236,-0.2066786445975125,1.1080412793159542,0.0,0.01961330000000126,10.279997382200005
500,249.796,0.4036697247706422,-0.1295203310839899,-0.07127866013080138,-0.9630511474519422,0.21555054620709665,-0.5794164550304393,-0.08863618421554759,1.1465464878082268,0.0,0.019613300000001263,10.311574795199999
501,249.849,0.37755102040816324,-0.13879914856296133,-0.054341316860063285,-0.9585838286439079,0.2424865264056453,-0.6320331174135161,-0.03423400682211397,1.1642923665046676,0.0,0.019613300000001263,10.326127863799998
502,249.994,0.3333333333333333,-0.14460358034909948,0.0023756575065773597,-0.9363800298099257,0.3100459363153227,-0.6099414484841483,0.15873991804463533,1.014896171433585,0.0,0.008405700000001258,10.28157205
503,250.074,0.31746031746031744,-0.1477310024370066,0.03370754742441267,-0.9240914132544422,0.34729659401987867,-0.5971167617373981,0.26537740064993115,0.9317122697830101,0.0,0.002179255555556075,10.256666272222219
504,250.154,0.5875,-0.14159934200387309,0.060253614928136044,-0.9127235172475392,0.37560136552558054,-0.4996027362442884,0.32940198961765266,0.839728744760643,0.002056233064515912,-0.002056233064514658,10.235611851612905
505,250.285,0.6870229007633588,-0.12339473009096716,0.09950299358690465,-0.8949204151737744,0.41406256574662137,-0.26525032370080914,0.3966691545661418,0.6813468238519087,0.00723635866935483,-0.00723635866935358,10.204531097983871
506,250.384,0.665,-0.10495657366281634,0.12193541057817028,-0.8823998681457866,0.4411486785888717,-0.08151638756197584,0.41615399718285,0.5669553428888421,0.008172208333333788,-0.011441091666664962,10.205453766666663
507,250.493,0.7046413502109705,-0.07480418025583946,0.13141691808174688,-0.8705799505840364,0.4668031468664795,0.13472744523017077,0.3716178957153789,0.4521686237524587,0.00293238063725513,-0.016680919362743615,10.25785204362745
508,250.61,0.7196969696969697,-0.047203954504928335,0.13285135774058046,-0.8617367456841152,0.48663753477968663,0.2860352755789031,0.32279182666519773,0.3577306413132155,0.0,-0.017776603010031845,10.276155668060198
509,250.66,0.684375,-0.03762721295002157,0.12939446033801572,-0.8597471129611098,0.49152798135246767,0.31308048943611666,0.30145058045818196,0.3307667633761572,0.0,-0.016136694983276592,10.266316219899668
510,250.78,0.6781609195402298,-0.014643033218236616,0.12109790657185725,-0.8549719944258953,0.5032650531271466,0.37798900269345376,0.25023158956132463,0.2660534563271927,0.0,-0.012200915719062483,10.242701544314382
511,250.844,0.6419098143236074,-0.0023848040279531163,0.11667307789657339,-0.8524252645404479,0.5095248247403079,0.41260687643069505,0.22291479441633807,0.23153969256775012,0.0,-0.01010183344481527,10.230107050668899
512,250.954,0.6657824933687002,0.017883506130190165,0.10071519631078286,-0.8493793445165972,0.5168973788434218,0.4224396830628278,0.16007592191218079,0.18997101159954663,0.0,-0.009806649999998755,10.17219585647773
513,251.074,0.683698296836983,0.03991657149049617,0.0824946338711848,-0.8461859352488239,0.5246109713820497,0.42833829867212475,0.08997994386835145,0.14634901206743745,0.0,-0.009806649999998763,10.10549475526315
514,251.154,0.5640449438202247,0.05058828928955386,0.06940132602954133,-0.8444864803909242,0.5282209911173216,0.413911361380877,0.046811263696605425,0.12805613257970452,-0.0021097972111554183,-0.007696852788843349,10.069944877888446
515,251.274,0.541095890410959,0.06369470478065356,0.04907794977828185,-0.8422474814652591,0.532529305232663,0.37901142655140757,-0.015369221330640587,0.1084084742335204,-0.0067982354581674585,-0.003008414541831315,10.023060495418326
516,251.39,0.545662100456621,0.07355357156129892,0.030064736892567407,-0.8401483257108169,0.5363072913832098,0.3370865116636497,-0.06631308048963205,0.0931731115981765,-0.008270668674699267,1.2232223397141962e-15,9.988368406024097
517,251.444,0.5528846153846154,0.07555976410971692,0.021795287950962278,-0.8392310667886219,0.5377105777430297,0.3100438793021557,-0.08160576224326835,0.08953418286449999,-0.00614392530120517,1.222440986874709e-15,9.981988175903615
518,251.609,0.5589887640449438,0.08121884722748125,-0.0030762446996232895,-0.8364405959010591,0.5419715538039305,0.22763065403699181,-0.12648698174953574,0.07860686400532657,0.0,1.2201405104812943e-15,9.9632033606
519,251.674,0.5471698113207547,0.08023240546286237,-0.010168564320351021,-0.835425066386063,0.5434668259956731,0.19664685046672237,-0.13155958974361515,0.07561066681146567,0.0,1.21982825873544e-15,9.9606536316
520,251.784,0.5627118644067797,0.07856304247658441,-0.022170951370812143,-0.8337064779760697,0.5459972866278527,0.14421272134781005,-0.1401440032720564,0.07054017925262464,0.0,1.2192998327039942e-15,9.9563387056
521,251.852,0.6224899598393574,0.07746804312895292,-0.02950167903778777,-0.8326482650054252,0.5475597852426639,0.11194901122336462,-0.14525267404626546,0.0674240585282976,0.0,1.218973207616973e-15,9.95367160936255
522,251.954,0.6330275229357798,0.07270558377988386,-0.03609574630933976,-0.8312682088483686,0.5498151192533163,0.07098414591583613,-0.14311182956059115,0.06365882088819783,0.0,1.2184851647411358e-15,9.94968643685259
523,252.034,0.6442307692307693,0.06897032154532078,-0.04126756377722245,-0.830185811862442,0.5515840086734353,0.038854839792291984,-0.14143273584633723,0.060705693327335955,0.0,1.218102386014989e-15,9.946560811354582
524,252.071,1.0,0.06724276276183472,-0.04365952935611907,-0.8296852032564508,0.5524021200302407,0.023995035710147397,-0.1406561550034945,0.05933987183043685,0.0,1.217925350854146e-15,9.945115209561754
525,252.158,0.73,0.06221366843928323,-0.047071265498763906,-0.8286655634380083,0.5542286231455973,-0.00401150613277813,-0.13552389428019618,0.055641980648041336,0.0,1.2172341673083426e-15,9.939471267600002
526,252.264,0.71,0.0554661715205691,-0.049809235442132914,-0.8275242206210902,0.55639171043995,-0.03368788362294741,-0.12715063706040297,0.05082461845874738,0.0,1.216215746229556e-15,9.9311552284
527,252.354,0.6896551724137931,0.049722426873496574,-0.05204039105349294,-0.8265612013362726,0.5582223970542719,-0.05860215026140479,-0.11993831935524778,0.04678921358287297,0.0,1.2153510490871902e-15,9.9240944404
528,252.445,0.6439024390243903,0.04348271693572869,-0.05155365830360133,-0.8257647455507032,0.559900513319565,-0.07550509178638348,-0.10962718987464971,0.044316072136163884,0.0,1.2144767441987983e-15,9.9169551992
529,252.588,0.5543071161048689,0.0336774584620912,-0.05078879255377148,-0.8245131721733795,0.5625375531650262,-0.10206685703992746,-0.0934239864051348,0.04042970700562016,0.0,1.2131028365170393e-15,9.9057363916
530,252.661,0.5285714285714286,0.028845919658263497,-0.049078734677533244,-0.8239803974768083,0.5636972370024909,-0.10963768422603627,-0.08493755102157566,0.03758213222026817,0.0,1.2124014710571204e-15,9.900009308
531,252.794,0.5785714285714286,0.020111916790072855,-0.04544223842267079,-0.8230516245648392,0.565736466024861,-0.12106708633899793,-0.06939114359021045,0.03205316957086275,0.0,1.2111236408356242e-15,9.889575032399998
532,252.843,0.548951048951049,0.016894126259688495,-0.044102476644564265,-0.822709445070956,0.5664877609278393,-0.12527791869640267,-0.06366351979971047,0.030016183331609186,0.0,1.2106528612803362e-15,9.8857308256
533,252.994,0.50997150997151,0.008341612989919553,-0.03805575388234438,-0.821766937754359,0.5684229079503067,-0.12798863327503204,-0.04498004557192317,0.028914774239063263,0.0,1.2092020916303669e-15,9.873884392399999
534,253.079,0.584045584045584,0.0035702243488569575,-0.03459156631340846,-0.8212399132192105,0.56950026014305,-0.1291912535429002,-0.03443032586574447,0.028457771494984584,0.0,1.2083854332181324e-15,9.867215870399999
535,253.192,0.6011396011396012,-0.0015840122788468823,-0.029543492968329317,-0.8205854621586532,0.5707059224774959,-0.12531068879365884,-0.02331911511346622,0.025459497146308165,0.0,1.2068626054729659e-15,9.854781038199999
536,253.274,0.6084507042253521,-0.00511567927129917,-0.02580261684152396,-0.8201186526394966,0.571541077372826,-0.121533434331417,-0.015767280001193117,0.02286434016376728,0.0,1.2056808527117328e-15,9.8451312946
537,253.394,0.5994550408719346,-0.009684261595663752,-0.020398817734542312,-0.819449624428696,0.5726839453227416,-0.11380588359023602,-0.005945743312198494,0.02034121850527911,0.0,1.2043637619216352e-15,9.834376432128515
538,253.474,0.596816976127321,-0.012014049279816204,-0.01688063134751082,-0.819020447337134,0.5733511771991489,-0.10602799210562833,-0.0008663399122570171,0.020180835332497073,0.0,1.2039779086675677e-15,9.83122570120482
539,253.554,0.6149732620320856,-0.014343836963969481,-0.013362444960478073,-0.8185912702455719,0.5740184090755562,-0.09825010062101788,0.004213063487686266,0.02002045215971497,0.0,1.2035920554134997e-15,9.828074970281126
540,253.674,0.5775401069518716,-0.01689243349510256,-0.00862073793677551,-0.8179609527000439,0.5749417223289586,-0.08553681065480426,0.010530179811723706,0.020063805642474713,0.0,1.2033701897924109e-15,9.8262633
541,253.834,0.6009852216748769,-0.01950641968482181,-0.0027423598802157664,-0.8171316754721956,0.5761085437872678,-0.06771842716818263,0.01787387574484882,0.020356938198386916,0.0,1.2033701897924109e-15,9.8262633
542,253.863,0.5912240184757506,-0.019844568280145473,-0.001789731900386159,-0.8169873976399291,0.5763091152718315,-0.06449382847547526,0.01887487913668157,0.020244402155280103,0.0,1.2033701897924109e-15,9.8262633
543,253.962,0.6040723981900452,-0.020342971922140334,0.000916683168005695,-0.8165240188437667,0.5769410380849325,-0.05350981603562943,0.020695948652922926,0.01905903079360735,0.0,1.2033701897924109e-15,9.8262633
544,254.048,0.6272727272727273,-0.02077592862124709,0.0032677103991345688,-0.8161214877683124,0.5774899811346972,-0.04396814866363972,0.022277887828648143,0.0180293142572045,0.0,1.2033701897924109e-15,9.8262633
545,254.154,0.6227272727272727,-0.020863787426435857,0.0056365416939550385,-0.8156378414905371,0.5781556827841674,-0.0329270864833133,0.023609465220008022,0.016400614517729714,0.0,1.203114562011591e-15,9.824175940763054
546,254.252,0.6439909297052154,-0.020532874068597027,0.007337567300420029,-0.815202250348988,0.5787610630608806,-0.023384600365346113,0.02426895231427447,0.014562454422464318,0.0,1.202641891775358e-15,9.820316295381526
