,time,img_sim,orientation.x,orientation.y,orientation.z,orientation.w,angular_velocity.x,angular_velocity.y,angular_velocity.z,linear_acceleration.x,linear_acceleration.y,linear_acceleration.z
0,80.435,0.9952038369304557,-0.0003509283615776374,0.0003355250241777283,-0.7076273228704031,-0.7065856891970751,0.00023081295745214502,-0.0002661016257479784,-0.0001547549001406884,0.0,-0.008041452999998732,9.80665
1,80.475,0.9905437352245863,-0.00035130549504417487,0.00033688477674946815,-0.7076282494438831,-0.706584760435179,0.00021785444900160967,-0.00027275234926491817,-0.00014056053827517074,0.0,-0.00961051699999842,9.80665
2,80.557,0.9905437352245863,-0.00035166749099783956,0.00033880900103913674,-0.7076293384957286,-0.706583668667151,0.00025267841684399085,-0.00025546061119530395,-0.00018187396938446805,0.0,-0.0098066499999988,9.80665
3,80.645,0.9882352941176471,-0.00035202732444966514,0.0003408138641456518,-0.7076304507587691,-0.7065825536125327,0.0002943284527282193,-0.00023474852147046664,-0.00023111708520445528,0.0,-0.0098066499999988,9.80665
4,80.755,0.9953161592505855,-0.00035290112726954194,0.00034284309432907527,-0.7076317659785665,-0.7065812350281301,0.0003337736484207846,-0.00022308855665370482,-0.00026844519238840465,0.0,-0.0098066499999988,9.80665
5,80.875,0.990632318501171,-0.0003554270620737602,0.00034328812480657287,-0.7076329221776791,-0.7065800756216821,0.000330005875918188,-0.0002631495051666153,-0.00021931111534227428,0.0,-0.0098066499999988,9.80665
6,80.955,0.9952941176470588,-0.00035711101860990557,0.0003435848117915712,-0.7076336929770876,-0.7065793026840502,0.0003274940275831237,-0.0002898568041752208,-0.00018655506397818932,0.0,-0.0098066499999988,9.80665
7,81.061,0.9952718676122931,-0.0003604241100542546,0.00034389137382249025,-0.7076346293595874,-0.7065783630608992,0.00030882582382579674,-0.00031604474832651433,-0.0001763903051069641,0.0,-0.0065766819444428755,9.80665
8,81.179,0.9905437352245863,-0.0003644459963788858,0.00034420594266203696,-0.7076356455495278,-0.7065773431377346,0.0002833121661318555,-0.0003423595952058566,-0.00017532774481445634,0.0,-0.0019846791666654658,9.80665
9,81.247,0.9929078014184397,-0.00036740513377675726,0.0003436580089135632,-0.7076362046791993,-0.7065767818946669,0.000274466563481837,-0.00034863554860931013,-0.00017288312502205416,0.0,-0.0006668521999986385,9.80665
10,81.355,0.9976415094339622,-0.00037516121409700027,0.00033931328665096316,-0.7076369665806658,-0.7065760168174661,0.00028832542011514306,-0.00031625198607798666,-0.00016027013771235937,0.0,-0.004903324999998799,9.80665
11,81.449,0.9599056603773585,-0.0003819118765979519,0.000335531769126108,-0.7076376297171274,-0.7065753509169395,0.0003003877582959823,-0.00028806629276368945,-0.00014929216727614468,0.0,-0.008590625399998568,9.80665
12,81.555,0.9953161592505855,-0.00038593561514916984,0.00033418235622339077,-0.7076386420850505,-0.7065743355042757,0.00030938057373630374,-0.0002492487955137145,-0.00015435926616191926,0.0,-0.0098066499999988,9.80665
13,81.675,0.9906542056074766,-0.00038881154512848757,0.0003340186495070525,-0.7076399119634241,-0.7065730622128022,0.0003174042702092237,-0.00020201325085407397,-0.00016825925558805468,0.0,-0.0098066499999988,9.80665
14,81.755,0.9952941176470588,-0.0003910316191008567,0.0003340430107146295,-0.7076408961932154,-0.7065720752578266,0.0003198604695498943,-0.00019189134286716627,-0.0001747116073966026,0.0,-0.0098066499999988,9.80665
15,81.852,0.9952830188679245,-0.0003945800945837464,0.00033445023965190235,-0.7076424789902444,-0.7065704878839957,0.0003146540254820133,-0.00024007345037535297,-0.00017457293812185522,0.0,-0.0098066499999988,9.80665
16,81.955,0.9928909952606635,-0.0003983480633954741,0.0003348826580079756,-0.7076441596922441,-0.7065688023220926,0.0003091255333274601,-0.0002912358944304306,-0.00017442569136619565,0.0,-0.0098066499999988,9.80665
17,82.038,0.995260663507109,-0.00040108760088574964,0.00033471776509570055,-0.7076454223776005,-0.7065675362376374,0.0002885455167852335,-0.0002859107131371268,-0.00018476960854604878,0.0,-0.0098066499999988,9.80665
18,82.157,0.9905437352245863,-0.0004048212775191718,0.0003341456317590553,-0.7076471727850994,-0.7065657812949288,0.0002484937184490257,-0.0002478307695128018,-0.0002064424026757482,0.0,-0.0098066499999988,9.80665
19,82.248,0.9929078014184397,-0.00040783505943444885,0.0003338666241188481,-0.7076485430059358,-0.7065644073800994,0.00023058684391435652,-0.00023092684242874789,-0.00021613400802016032,0.0,-0.009139797799998402,9.80665
20,82.355,0.9952941176470588,-0.00041219058763206713,0.00033434984086467043,-0.7076503162611684,-0.7065626286252024,0.0002746411720290819,-0.0002735760218929537,-0.00019230703171342397,0.0,-0.004942551599998429,9.80665
21,82.445,0.9882629107981221,-0.0004158541160225868,0.0003347562848564835,-0.7076518077842612,-0.7065611324762237,0.0003116962143685663,-0.0003094491634983564,-0.00017226564977318077,0.0,-0.0014121575999988534,9.80665
22,82.558,0.9906103286384976,-0.0004190400262043763,0.0003343787632370705,-0.707653682648684,-0.7065592530109494,0.0003042650528950581,-0.00033240806276444487,-0.00017029858217574749,0.0,-0.003020448199999285,9.80665
23,82.665,0.9953051643192489,-0.00042143084924771635,0.00033362823575490446,-0.7076554589253707,-0.7065574729121435,0.00027334180497564037,-0.0003443721116054816,-0.00017870500963181344,0.0,-0.007217694399999258,9.80665
24,82.755,0.9953596287703016,-0.0004247342157203059,0.0003320737369877775,-0.707656839508166,-0.706556088913647,0.0002496491256169973,-0.0003461434794589875,-0.00018387066340073938,0.0,-0.0098066499999988,9.80665
25,82.856,0.9576470588235294,-0.00043242979790970317,0.0003274801030390927,-0.7076580386117005,-0.7065548853571388,0.00023021282686386257,-0.0003225417749490589,-0.00018378809909336263,0.0,-0.0098066499999988,9.80665
26,82.972,0.9929078014184397,-0.00044126828834505056,0.0003222042462267419,-0.7076594157999183,-0.7065535030546147,0.00020788994908798493,-0.0002954348667990417,-0.0001836932727601379,0.0,-0.0098066499999988,9.80665
27,83.075,0.9905437352245863,-0.0004445406846089433,0.0003217906247726034,-0.707660941640353,-0.7065519729597091,0.0002540179025381846,-0.00026919605955481315,-0.00017496051522903066,0.0,-0.0098066499999988,9.80665
28,83.172,0.9953051643192489,-0.0004472098886268503,0.00032178620019402825,-0.7076624059168805,-0.706550504702393,0.0003034052470466135,-0.00024429008667357205,-0.00016595664469059532,0.0,-0.0098066499999988,9.80665
29,83.275,0.9906103286384976,-0.0004503631552349558,0.00032170071815191826,-0.7076637986779133,-0.7065491077830793,0.00033073964808136156,-0.00024267735797912226,-0.00016821414954029218,0.0,-0.0098066499999988,9.80665
30,83.355,0.9929577464788732,-0.00045314448276878295,0.00032155018941810884,-0.7076647116208383,-0.706548191682015,0.00032582087721675577,-0.0002672887491062313,-0.00018227612390183076,0.0,-0.0098066499999988,9.80665
31,83.475,0.9953051643192489,-0.00045731647406952337,0.00032132439631739465,-0.7076660810352259,-0.7065468175304185,0.0003184427209198475,-0.00030420583579689257,-0.0002033690854441374,0.0,-0.0098066499999988,9.80665
32,83.555,0.9930394431554525,-0.00046021134973744726,0.0003208171020015234,-0.7076670539171461,-0.706545841442882,0.0003189080577742842,-0.0002746970844565895,-0.00020877789176579264,0.0,-0.0098066499999988,9.80665
33,83.659,0.9930232558139535,-0.00046398665669285504,0.00032012001437007904,-0.7076683249815365,-0.7065445662061862,0.0003200805097419237,-0.00023063115215682714,-0.0002148972492986583,0.0,-0.0098066499999988,9.80665
34,83.759,0.9930232558139535,-0.00046777530272974923,0.0003194796817286535,-0.7076696328028363,-0.7065432541000556,0.0003120094486540307,-0.00020319728057337767,-0.00021386615888507404,0.0,-0.0098066499999988,9.80665
35,83.858,0.9976635514018691,-0.0004719727882477031,0.0003189301251871757,-0.707671168864367,-0.7065417130273162,0.00027810078442478135,-0.0002181262296136383,-0.00019336078899452434,0.0,-0.0098066499999988,9.80665
36,83.955,1.0,-0.0004760854760784252,0.000318391670798051,-0.7076726738943516,-0.7065402030873594,0.0002448771437153181,-0.00023275358372379119,-0.00017326966900075533,0.0,-0.0098066499999988,9.80665
37,84.053,1.0,-0.0004906266101738011,0.00031393443331915105,-0.7076746448135037,-0.7065382207001911,0.00041859034784549453,-0.00022698665364088137,-0.0001901653310074562,0.0,-0.0098066499999988,9.80665
38,84.155,0.997624703087886,-0.0005098720927429675,0.00030774639727608596,-0.7076768744376526,-0.7065359765642827,0.0006814357592260605,-0.0002128525256519629,-0.00022247208639545655,0.0,-0.0098066499999988,9.80665
39,84.275,0.9787234042553191,-0.0005313729505616907,0.0003035672175823254,-0.707680052470573,-0.7065327795366686,0.0007899806018002025,-0.00021534015023563752,-0.00022598964001406427,0.0,-0.014943466666666573,9.798088638888887
40,84.355,0.9906759906759907,-0.0005443931078211042,0.0003043517881796391,-0.7076828101875526,-0.7065300069433069,0.0006312519507778212,-0.00023901094229788558,-0.00018861846460605793,0.0,-0.02428313333333269,9.782522527777777
41,84.465,0.9976689976689976,-0.000562295824052798,0.0003054305727509454,-0.7076866020483998,-0.7065261946274346,0.00041300005562204333,-0.00027155828138347715,-0.00013723309842004838,0.0,-0.0371251749999988,9.761119125
42,84.559,0.9930232558139535,-0.0005783120036076504,0.000305870573780404,-0.7076902290675912,-0.7065225482950328,0.00037344746538494033,-0.00029796367405023446,-0.0001505036663262151,0.0,-0.030247016867469292,9.772582721887549
43,84.657,0.9976635514018691,-0.0005951868868814078,0.0003062103148227221,-0.7076941059126088,-0.7065186508622467,0.00036849763527714547,-0.0003251450887393105,-0.00017845827254399263,0.0,-0.018668080722890872,9.79188094879518
44,84.755,1.0,-0.0006113018157503717,0.0003070508527914115,-0.7076977766697055,-0.7065149600768283,0.00035498762049246743,-0.0003428761543473234,-0.00020160466362722184,0.0,-0.0098066499999988,9.80665
45,84.845,1.0,-0.0006238254229049417,0.0003093225000177621,-0.707700530606583,-0.7065121894219553,0.0003169454833259808,-0.00033085905120242394,-0.00020846250629983834,0.0,-0.0098066499999988,9.80665
46,84.995,0.997624703087886,-0.0006441724360458454,0.00031328613978051054,-0.7077052316086301,-0.7065074606845276,0.00026147133746509736,-0.00031327785305505177,-0.00021788718038892683,0.0,-0.0098066499999988,9.80665
47,85.075,0.9976303317535545,-0.0006520696669863751,0.00031639806515742065,-0.7077083632894517,-0.7065043149306207,0.00027645251109442286,-0.00031765633494138657,-0.00021164418701248732,0.0,-0.0098066499999988,9.80665
48,85.155,0.9976133651551312,-0.0006599668979269047,0.0003195099905343308,-0.7077114949702734,-0.7065011691767138,0.0002914336847237483,-0.0003220348168277214,-0.0002054011936360478,0.0,-0.0098066499999988,9.80665
49,85.26,0.992822966507177,-0.0006687378305128512,0.00032366880033213525,-0.7077156162265748,-0.7064970308083344,0.00030934295031212147,-0.00033026506899923774,-0.00019783301761509012,0.0,-0.0098066499999988,9.80665
50,85.355,0.992822966507177,-0.0006722908927457931,0.00032763608615405884,-0.7077193750166345,-0.7064932602715015,0.0003207259841503644,-0.00034453882378124317,-0.00019270586738956208,0.0,-0.0098066499999988,9.80665
51,85.454,0.9904076738609112,-0.0006759935575990689,0.0003317704155895367,-0.7077232920715387,-0.7064893309752229,0.00033258830362390063,-0.0003594135787645948,-0.00018736283715453864,0.0,-0.0098066499999988,9.80665
52,85.555,0.9976019184652278,-0.000679081830548988,0.0003331486719339431,-0.7077276072169575,-0.7064850046407489,0.0003305777491801284,-0.0003274593716097661,-0.00018738601294130956,0.0,-0.0098066499999988,9.80665
53,85.654,0.9689737470167065,-0.0006818498361126893,0.0003334320439052145,-0.7077319568314661,-0.7064806445473636,0.0003233011760953002,-0.0002784188284883789,-0.0001894668245778985,0.0,-0.0098066499999988,9.80665
54,85.755,0.9976190476190476,-0.0006829775854199284,0.0003343834551077074,-0.7077363476914544,-0.7064762443640366,0.0003120903048223002,-0.0002481916399923191,-0.00019267617444784495,0.0,-0.0098066499999988,9.80665
55,85.859,0.9976303317535545,-0.0006778671047752801,0.00033781208027983903,-0.7077406965719121,-0.7064718909387471,0.0002865426435909554,-0.00029029355437707724,-0.0001999982671267965,0.0,-0.0098066499999988,9.80665
56,85.995,0.9976076555023924,-0.0006707623395221955,0.0003422694193462617,-0.7077462734211579,-0.706466308720863,0.00026110658771358623,-0.0003346974764717721,-0.00020624918141402203,0.0,-0.0098066499999988,9.80665
57,86.075,0.992822966507177,-0.0006642353296388239,0.0003447452990347657,-0.7077489408782751,-0.7064636413037425,0.0002905156125780208,-0.0003015301645500571,-0.00019142537587322225,0.0,-0.0098066499999988,9.80665
58,86.155,0.992822966507177,-0.0006577083197554524,0.0003472211787232697,-0.7077516083353923,-0.706460973886622,0.00031992463744245534,-0.0002683628526283421,-0.00017660157033242248,0.0,-0.0098066499999988,9.80665
59,86.258,0.9904076738609112,-0.0006480035327616897,0.0003503525441088166,-0.7077547908589608,-0.7064577929702942,0.0003371374640846641,-0.0002452105346601444,-0.00016853785864077417,0.0,-0.0098066499999988,9.80665
60,86.365,0.9976019184652278,-0.0006339184643782692,0.0003534322147562676,-0.7077573222159593,-0.7064552680692797,0.0002914840218727496,-0.0002813074775040135,-0.00019407053256872931,0.0,-0.0098066499999988,9.80665
61,86.45,0.9903846153846154,-0.0006227293913634012,0.000355878682093028,-0.707759333107033,-0.7064532623067915,0.00025521726871374843,-0.00030998261901550117,-0.0002143534978386023,0.0,-0.0098066499999988,9.80665
62,86.56,0.9951923076923077,-0.0006073035806912683,0.0003589423439445127,-0.707761563358759,-0.7064510396878606,0.00028866041662492525,-0.000302864852119274,-0.0002153894465845225,0.0,-0.0098066499999988,9.80665
63,86.675,0.9928057553956835,-0.0005907709244883445,0.0003621013627678889,-0.7077637353997046,-0.7064488760537591,0.0003580975844162997,-0.0002764544913088879,-0.00020565869044549662,0.0,-0.0098066499999988,9.80665
64,86.755,0.9952267303102625,-0.0005792447308765642,0.0003643628657141959,-0.707765039716419,-0.7064475777862738,0.00038572582257275997,-0.0002655892199967571,-0.00020184428627456844,0.0,-0.0098066499999988,9.80665
65,86.853,1.0,-0.0005650437094744517,0.0003673396543358593,-0.7077659700597531,-0.7064466555023504,0.0003527967246664511,-0.0002765239564230635,-0.0002067143585622666,0.0,-0.0098066499999988,9.80665
66,86.958,0.9904076738609112,-0.0005498283294007591,0.0003705290707162132,-0.7077669668561823,-0.706445667341004,0.0003175155483382613,-0.0002882397454512495,-0.00021193229315622913,0.0,-0.0098066499999988,9.80665
67,87.051,0.9569377990430622,-0.0005396295299761516,0.0003707672594297119,-0.7077672991228139,-0.7064453421906403,0.0003233199558136143,-0.00028673145094547744,-0.00020840326959097906,0.0,-0.0098066499999988,9.80665
68,87.155,0.9952038369304557,-0.000529499329692815,0.00037002747164034585,-0.7077674565207062,-0.7064451925438147,0.00034422346799387797,-0.00028042183253038,-0.0002012865129203015,0.0,-0.0098066499999988,9.80665
69,87.254,0.9928057553956835,-0.0005186561246254878,0.000369965843697919,-0.7077675408135187,-0.70644511618177,0.00035200703244369524,-0.00027448746886175955,-0.00019329088928106238,0.0,-0.0098066499999988,9.80665
70,87.355,0.9904076738609112,-0.0005024390154464205,0.00037266328571756725,-0.7077673452855499,-0.7064453221733861,0.0003079069224054253,-0.0002687421049036626,-0.00017988874514771917,0.0,-0.0098066499999988,9.80665
71,87.456,0.9928057553956835,-0.0004862219062673534,0.00037536072773721547,-0.707767149757581,-0.7064455281650022,0.0002638068123671553,-0.00026299674094556563,-0.00016648660101437594,0.0,-0.0098066499999988,9.80665
72,87.555,0.9952267303102625,-0.0004718292840992288,0.0003770200760021048,-0.7077663065741056,-0.7064463817243979,0.00026843258651878925,-0.00026505450967168726,-0.00016812632587159544,0.0,-0.0098066499999988,9.80665
73,87.656,0.9976019184652278,-0.0004576921608071086,0.0003783551538410496,-0.7077652096178886,-0.7064474893095616,0.00029053951871481267,-0.00026994785356550564,-0.00017516835269414325,0.0,-0.0098066499999988,9.80665
74,87.755,0.9952038369304557,-0.0004444278969130428,0.0003798793743864765,-0.7077640193247403,-0.7064486896124502,0.00030268635925469694,-0.0002787294543665478,-0.00018015579727248288,0.0,-0.0098066499999988,9.80665
75,87.851,0.9904076738609112,-0.0004335779026099277,0.00038208907151653126,-0.7077624745983632,-0.7064502426580297,0.00028214690069560403,-0.00030077031993982464,-0.00017849225107955177,0.0,-0.0098066499999988,9.80665
76,87.962,0.9880668257756563,-0.0004210325966969509,0.0003846440338231571,-0.7077606885084896,-0.7064520383669809,0.0002583981517366529,-0.0003262550707589259,-0.00017656877579397517,0.0,-0.0098066499999988,9.80665
77,88.075,0.9904534606205251,-0.00040887201563024337,0.0003859474652924429,-0.7077581442132161,-0.7064545937213865,0.0002871716998542052,-0.0003093297587168432,-0.00019352993082353312,0.0,-0.0098066499999988,9.80665
78,88.155,0.9928400954653938,-0.0004003672912004321,0.0003866481620341118,-0.7077562186787292,-0.7064565273021576,0.0003166051129273235,-0.0002900098960918287,-0.00020877598301292734,0.0,-0.0098066499999988,9.80665
79,88.263,0.9809069212410502,-0.00039033871057419205,0.0003864310807923133,-0.707753630072083,-0.7064591264801282,0.00034071051465746436,-0.00027623784170293996,-0.00023369961843220085,0.0,-0.0098066499999988,9.80665
80,88.375,0.9904534606205251,-0.000383516887111475,0.0003833414797799708,-0.7077509723509903,-0.7064617944469619,0.0003272133222448507,-0.0002922741945699922,-0.00027023921886991175,0.0,-0.0098066499999988,9.80665
81,88.445,0.9496402877697842,-0.0003792532474472771,0.00038141047914725686,-0.7077493112753073,-0.706463461926233,0.00031877757698696755,-0.00030229691511189936,-0.0002930764691434799,0.0,-0.0098066499999988,9.80665
82,88.579,0.9976019184652278,-0.0003686238848363831,0.0003823944656678469,-0.7077462903444808,-0.7064664933756889,0.00031829630839638366,-0.0003103859990369526,-0.00026943118055351473,0.0,-0.0098066499999988,9.80665
83,88.649,0.9904306220095693,-0.00036256099863301726,0.00038387631025622697,-0.7077447450915443,-0.7064680437637058,0.0003212845325469969,-0.00031231696251779787,-0.00024315007939003524,0.0,-0.0098066499999988,9.80665
84,88.755,0.9928571428571429,-0.0003540554382159616,0.0003860803356417788,-0.7077421048259797,-0.706470691970176,0.0003262058193795378,-0.0003086313204839849,-0.00021988849877379506,0.0,-0.0098066499999988,9.80665
85,88.851,0.9928571428571429,-0.00034868774233370257,0.0003879384238432161,-0.7077386751734382,-0.7064741293847947,0.0003320330972783264,-0.0002824372919276371,-0.0002560008221771549,0.0,-0.0098066499999988,9.80665
86,88.955,0.9976133651551312,-0.0003428727384612556,0.0003899513527281064,-0.7077349597165183,-0.7064778532506316,0.0003383459816686806,-0.0002540604276582615,-0.00029512250586412623,0.0,-0.0098066499999988,9.80665
87,89.052,0.9808612440191388,-0.0003407363183391488,0.00039014813011109317,-0.7077316135512691,-0.7064812062845126,0.0003321111142868173,-0.0002735387935535993,-0.00027984202571678806,0.0,-0.0098066499999988,9.80665
88,89.155,0.992822966507177,-0.0003398841916418429,0.00038963288379316246,-0.7077281117752947,-0.7064847149341585,0.0003202668754383925,-0.0003140197205357242,-0.00024130921647884057,0.0,-0.0098066499999988,9.80665
89,89.275,0.9881235154394299,-0.00033883263489049604,0.0003884363543323384,-0.7077236007824155,-0.7064892349971597,0.00031369619816541683,-0.00033830276317894437,-0.00022414016397669952,0.0,-0.0098066499999988,9.80665
90,89.355,0.9976359338061466,-0.00033805881218131696,0.00038690046303938827,-0.7077200595204545,-0.7064927836206774,0.000318265238776803,-0.00032616482675075536,-0.0002470185128040611,0.0,-0.0098066499999988,9.80665
91,89.461,0.9882075471698113,-0.00033703349709165477,0.00038486540707622946,-0.707715367348356,-0.7064974855468383,0.00032431921758688953,-0.00031008206098340544,-0.00027733232500031424,0.0,-0.0098066499999988,9.80665
92,89.559,0.9976415094339622,-0.0003377481967555984,0.0003836626067146,-0.7077126107037028,-0.7065002472484821,0.0003453052770346386,-0.00030996258044615365,-0.0002520054536871639,0.0,-0.0098066499999988,9.80665
93,89.656,0.9905660377358491,-0.00033893198081046556,0.00038266653125619717,-0.7077103352909587,-0.7065025265317335,0.0003704864429309969,-0.00031407034152653075,-0.0002116503685247145,0.0,-0.0098066499999988,9.80665
94,89.755,0.9952830188679245,-0.00034088645925497925,0.0003808508830636317,-0.7077078439174042,-0.7065050221872273,0.00038587394960960835,-0.00032000720708428096,-0.0001834588643584026,0.0,-0.0098066499999988,9.80665
95,89.859,0.9617224880382775,-0.0003456835707061896,0.00037600566905439305,-0.7077046051774022,-0.7065082666447461,0.0003641206182486898,-0.0003326576986564168,-0.00020162551288282595,0.0,-0.0098066499999988,9.80665
96,89.979,0.9952153110047847,-0.00035121869930374033,0.0003704150375052712,-0.7077008681697078,-0.7065120102495756,0.00033902062052455187,-0.0003472544197011895,-0.0002225870304110077,0.0,-0.0098066499999988,9.80665
97,90.068,0.9881235154394299,-0.000351800850250414,0.00036948160473557857,-0.7076985517888206,-0.7065143307070356,0.0003439444855238045,-0.0003730020353465253,-0.000246912382689992,0.0,-0.0098066499999988,9.80665
98,90.155,1.0,-0.0003522907490537954,0.0003686413491583711,-0.7076962976913951,-0.7065165887710819,0.00034928668381845843,-0.00039850637230778207,-0.00027088837634350746,0.0,-0.0098066499999988,9.80665
99,90.261,0.9858490566037735,-0.0003522243807038694,0.0003679538947766414,-0.7076935486034931,-0.7065193428367171,0.00034115155762993185,-0.0003938826785888606,-0.0002907724592369054,0.0,-0.0098066499999988,9.80665
100,90.355,0.9952830188679245,-0.00035052704967263433,0.0003681750573210997,-0.7076911040228122,-0.7065217921894169,0.00029776154947467156,-0.0003015959931071849,-0.00028536196844652293,0.0,-0.0098066499999988,9.80665
101,90.447,0.9905882352941177,-0.00034886583206759594,0.00036839151427950557,-0.7076887114544863,-0.7065241894282295,0.0002552947329822934,-0.0002112728541251286,-0.00028006659448146827,0.0,-0.0098066499999988,9.80665
102,90.557,0.9952941176470588,-0.00034804199970069993,0.00036790771983269795,-0.707685944055679,-0.7065269620330757,0.00026675679426204155,-0.00022998913828771347,-0.0002691674917947413,0.0,-0.0098066499999988,9.80665
103,90.649,0.9976303317535545,-0.00034782593559295604,0.00036720094227041543,-0.7076836674579688,-0.7065292428310299,0.00030166645684937335,-0.00029719901864328196,-0.0002581933838969451,0.0,-0.0098066499999988,9.80665
104,90.755,0.990521327014218,-0.00034748351918335434,0.0003666591666145729,-0.7076809184485225,-0.7065319967778425,0.0003364719646836975,-0.000353653812252667,-0.0002426459313974347,0.0,-0.0098066499999988,9.80665
105,90.849,0.9811764705882353,-0.00034682343501855325,0.00036721803288727205,-0.7076780002866728,-0.7065349196916327,0.0003466830078332905,-0.00032370619395893446,-0.0002177874091311329,0.0,-0.0098066499999988,9.80665
106,90.955,0.9882352941176471,-0.0003460790847901606,0.0003678482437905285,-0.7076747095935232,-0.7065382157433536,0.00035819758840623426,-0.00028993547545749614,-0.00018975545849041352,0.0,-0.0098066499999988,9.80665
107,91.042,0.986013986013986,-0.0003483378111507766,0.00036596640987862443,-0.7076726612438681,-0.7065402672279887,0.0003678484987467535,-0.00029055550042539954,-0.0001949573401361719,0.0,-0.0098066499999988,9.80665
108,91.155,0.9906759906759907,-0.00035313518591426036,0.00036196416398943205,-0.7076704244952152,-0.7065425072282278,0.0003805136457085617,-0.00030976391024887677,-0.00022003359918017082,0.0,-0.0098066499999988,9.80665
109,91.256,0.9505882352941176,-0.0003566226465655104,0.00035933167989498044,-0.707668151754109,-0.7065447832112647,0.0003801144114695466,-0.0003179694567807006,-0.00024284057272598277,0.0,-0.0098066499999988,9.80665
110,91.355,0.9929411764705882,-0.00035722359358092903,0.0003600766378735565,-0.7076649612699816,-0.7065479780545328,0.00033847308089024925,-0.0002944644188974031,-0.00026658159890212337,0.0,-0.0098066499999988,9.80665
111,91.467,0.9905437352245863,-0.0003579034528306955,0.00036091941861699607,-0.7076613518333928,-0.7065515924226747,0.00029136369680054315,-0.00026787286088801826,-0.00029344013356603774,0.0,-0.0098066499999988,9.80665
112,91.573,0.9929078014184397,-0.00035713130081280956,0.0003613190337354615,-0.7076591502830198,-0.7065537976082551,0.0003231391438021085,-0.00026799443423897173,-0.0002819585428142093,0.0,-0.0098066499999988,9.80665
113,91.647,0.9858156028368794,-0.0003564034859191052,0.0003615449358147748,-0.7076577753052647,-0.7065551749861613,0.0003555045641405788,-0.00027145147475948815,-0.0002690224010848377,0.0,-0.0098066499999988,9.80665
114,91.755,0.9882629107981221,-0.0003555501656045344,0.0003619422473615755,-0.70765560910257,-0.7065573447933736,0.00039077392185716257,-0.0002802098428623544,-0.0002485520183396192,0.0,-0.0098066499999988,9.80665
115,91.848,0.9814814814814815,-0.0003559306346232481,0.00036264537437157707,-0.7076528923238841,-0.706560065218352,0.0003572560833870537,-0.000307574839098379,-0.00022243266317269035,0.0,-0.0098066499999988,9.80665
116,91.985,0.988399071925754,-0.00035651565832845285,0.0003637139816110197,-0.7076489016228882,-0.7065640612426275,0.0003091202165506605,-0.0003475929071024736,-0.00018470925538693005,0.0,-0.0098066499999988,9.80665
117,92.058,0.9953271028037384,-0.0003577103021736805,0.0003654637550788176,-0.7076471864878847,-0.7065657774826509,0.0003280659056402223,-0.00035834895964968007,-0.0001917094151318761,0.0,-0.0098066499999988,9.80665
118,92.155,0.9952718676122931,-0.0003592977056392567,0.0003677887965360282,-0.7076449074728801,-0.7065680579659698,0.0003532403144304579,-0.00037264124865076035,-0.0002010109972587207,0.0,-0.0098066499999988,9.80665
119,92.249,0.9952718676122931,-0.0003604313868555669,0.00036968210991103365,-0.7076425987019594,-0.7065703686964679,0.00037583052879199393,-0.00037501418672036347,-0.00021425644401460903,0.0,-0.0098066499999988,9.80665
120,92.355,0.9929245283018868,-0.00035930670894860267,0.0003696801518073392,-0.7076393998628139,-0.7065735729326675,0.00039058110257610807,-0.0003095261600101309,-0.0002543239593505894,0.0,-0.0098066499999988,9.80665
121,92.452,0.9929245283018868,-0.0003582775225620412,0.0003696783599577321,-0.7076364726232184,-0.7065765051110766,0.00040407926915213515,-0.00024959843745454933,-0.0002909895158372832,0.0,-0.0098066499999988,9.80665
122,92.555,0.9929245283018868,-0.0003604314692823736,0.00036830976789626956,-0.7076328886576886,-0.7065800940247629,0.00038757048291153845,-0.0002610515623819137,-0.00031531777081545646,0.0,-0.0098066499999988,9.80665
123,92.655,0.9504716981132075,-0.00036394340185449725,0.0003663830060148348,-0.7076292009418568,-0.7065837864150413,0.00035804683552123417,-0.00030502775288187255,-0.00033254650502931435,0.0,-0.0098066499999988,9.80665
124,92.755,0.9860788863109049,-0.00036677170459000895,0.0003653188610873177,-0.7076257570121347,-0.7065872345472877,0.0003367641691584141,-0.0003390046426793561,-0.0003422833380755035,0.0,-0.0098066499999988,9.80665
125,92.851,0.9953271028037384,-0.0003670179948918792,0.00036741256147047765,-0.7076233312557236,-0.7065896626338086,0.00034609452378936157,-0.00033551069663371883,-0.0003245742318686089,0.0,-0.0098066499999988,9.80665
126,92.955,0.9952830188679245,-0.0003672848093855719,0.00036968073688556754,-0.707620703352945,-0.7065922930608729,0.00035620240797288753,-0.00033172558841761194,-0.00030538936681114064,0.0,-0.0098066499999988,9.80665
127,93.043,0.9905660377358491,-0.0003681941490687102,0.0003711419310264986,-0.7076180425160546,-0.7065949565089679,0.0003613953188760211,-0.0003112640947801954,-0.0002716924290871191,0.0,-0.0098066499999988,9.80665
128,93.155,0.9929245283018868,-0.0003697791189438207,0.00037271509849803565,-0.7076143824769618,-0.7065986201687309,0.0003659025904489684,-0.00027442552789579865,-0.00021788058278616204,0.0,-0.0098066499999988,9.80665
129,93.25,0.9905660377358491,-0.0003710438124767392,0.0003741200208266806,-0.7076112811040102,-0.7066017245984769,0.00036931705265305946,-0.00025768610974774076,-0.0001858673705719431,0.0,-0.0098066499999988,9.80665
130,93.355,0.9929245283018868,-0.000372006686825556,0.0003760577788671179,-0.7076078703218467,-0.7066051386811102,0.0003708607233129443,-0.0003183559506433139,-0.0002248706570826505,0.0,-0.0098066499999988,9.80665
131,93.451,0.9952830188679245,-0.0003728870290873312,0.0003778294433612318,-0.7076047518924402,-0.7066082601280891,0.00037227207934483885,-0.0003738255194621154,-0.0002605308047495777,0.0,-0.0098066499999988,9.80665
132,93.555,0.990632318501171,-0.0003732298734630051,0.0003798794671570911,-0.7076016859747685,-0.7066113290708471,0.00035607104887257993,-0.00038103499951627507,-0.0002574042073428696,0.0,-0.0098066499999988,9.80665
133,93.651,0.9929577464788732,-0.0003732842645253446,0.00038182788062324154,-0.7075989899194718,-0.7066140278138678,0.0003335094478248485,-0.0003650013983075276,-0.00023660226052523104,0.0,-0.0098066499999988,9.80665
134,93.761,0.9882352941176471,-0.0003757361488258673,0.00038215931346209366,-0.7075957765022811,-0.706617244181105,0.0003454168136231556,-0.00034950652136467417,-0.00022517644776962596,0.0,-0.0098066499999988,9.80665
135,93.855,0.9929245283018868,-0.0003844285895709352,0.0003771938395875229,-0.7075926876304438,-0.706620335215984,0.00045983927790076097,-0.0003442082623951135,-0.0002496738987974834,0.0,-0.0098066499999988,9.80665
136,93.955,0.9858490566037735,-0.0003936758669593039,0.00037191142057202284,-0.7075894015965744,-0.7066236235509615,0.0005815653037279831,-0.0003385718166828157,-0.00027573501691222156,0.0,-0.0098066499999988,9.80665
137,94.057,0.9599056603773585,-0.00039798711965609166,0.0003717303913259989,-0.7075864960773223,-0.7066265307521671,0.0005292638721875812,-0.0003487752729561185,-0.00028343210811726744,0.0,-0.02110391079999923,9.789704108799999
138,94.155,0.9905660377358491,-0.0004000792420042462,0.00037364097817246225,-0.7075838831399481,-0.7066291450392477,0.00040837101871147544,-0.0003649648593273017,-0.00028326708124950525,0.0,-0.03648073799999907,9.766638868
139,94.256,0.9976525821596244,-0.00040151151987392425,0.00037640726454472287,-0.7075811525551845,-0.7066318770266053,0.0003154353128256374,-0.0003815258314426752,-0.00028103822749479113,0.0,-0.04575134322709038,9.752732960159364
140,94.355,0.9882903981264637,-0.0004002123706485755,0.0003820956331354339,-0.7075783354174907,-0.7066346955823223,0.00034255347658965457,-0.000397295038149956,-0.0002711658629002529,0.0,-0.03027949701195064,9.775940729482071
141,94.456,0.9953051643192489,-0.000398886975984331,0.00038789891826333074,-0.7075754613679243,-0.7066375710785588,0.0003702194820458728,-0.00041338281468970633,-0.0002610940565967346,0.0,-0.014495088247010846,9.799617342629482
142,94.555,0.9882352941176471,-0.00039553273637977056,0.0003935175706359064,-0.7075726948591363,-0.7066403399930922,0.00038792149070650375,-0.0003830705947475495,-0.00027005569159518965,0.0,-0.0098066499999988,9.80665
143,94.649,0.9929245283018868,-0.0003914995124089678,0.000398823672166192,-0.7075700889738362,-0.7066429485703905,0.0004008422447368498,-0.00033526578114833857,-0.00028633984376210655,0.0,-0.0098066499999988,9.80665
144,94.771,0.9882075471698113,-0.0003863282556914536,0.00040597180125419877,-0.7075665608597009,-0.7066464800959872,0.0004066853696596346,-0.00029842740922500456,-0.00030552718019763713,0.0,-0.0098066499999988,9.80665
145,94.857,0.9905660377358491,-0.00038279395248329653,0.00041146882979457795,-0.7075638179901405,-0.7066492252259501,0.00039165884693037297,-0.00031662625929220986,-0.0003156403720614508,0.0,-0.0098066499999988,9.80665
146,94.955,0.9882075471698113,-0.0003787664906879547,0.0004177328855731496,-0.7075606923945948,-0.7066523533973031,0.00037453560009935384,-0.00033736448378739734,-0.0003271647069760293,0.0,-0.0098066499999988,9.80665
147,95.052,0.9575471698113207,-0.00037524189775347037,0.00042362561732246616,-0.707557075020408,-0.7066559737433867,0.0003689906729850918,-0.00034100639563985143,-0.00032341272127814504,0.0,-0.0098066499999988,9.80665
148,95.155,0.9502369668246445,-0.00037171884199150353,0.0004297366898052269,-0.7075529849069742,-0.7066600672133666,0.00036852468736469745,-0.0003368456196039915,-0.00031222132034599756,0.0,-0.0098066499999988,9.80665
149,95.248,0.9808153477218226,-0.00036898488252169417,0.0004346284005698668,-0.7075493391681638,-0.7066637160507061,0.00036790545319672664,-0.0003354988542851069,-0.00030464540771208743,0.0,-0.0098066499999988,9.80665
150,95.355,0.9544364508393285,-0.00036900459126379127,0.0004358238926420567,-0.7075454793351277,-0.7066675799291914,0.0003657876467332243,-0.00035101307556033203,-0.00031383454799652135,0.0,-0.0098066499999988,9.80665
151,95.453,0.9056603773584906,-0.000369022642261226,0.00043691882930630544,-0.7075419441609452,-0.7066711188085518,0.0003638479735236614,-0.0003652223623357719,-0.00032225076993927385,0.0,-0.0098066499999988,9.80665
152,95.557,0.9905660377358491,-0.0003677565799493033,0.0004402553297600776,-0.7075383150151513,-0.7066747509707835,0.00036752787954174,-0.0003436369984410694,-0.00031438583368435455,0.0,-0.0098066499999988,9.80665
153,95.647,0.9504716981132075,-0.00036616663430534487,0.00044397904240310967,-0.7075352215111467,-0.7066778467330178,0.0003729194654151801,-0.00031085558468475717,-0.0003011194707360109,0.0,-0.0098066499999988,9.80665
154,95.755,0.9527186761229315,-0.000364619805561974,0.0004482898464634925,-0.7075314310209241,-0.7066816399110983,0.00037803597748279575,-0.0002896169410087147,-0.00028661347576417053,0.0,-0.0098066499999988,9.80665
155,95.847,0.9598108747044918,-0.00036465561552773785,0.00045137111316459597,-0.7075279086594675,-0.7066851644796853,0.0003773217778652907,-0.00033936269441619236,-0.00027955505135469173,0.0,-0.0098066499999988,9.80665
156,95.955,0.9550827423167849,-0.00036469765331363456,0.00045498825233545676,-0.7075237737134097,-0.7066893020167222,0.00037648336961865425,-0.00039775988319888655,-0.0002712690748739988,0.0,-0.0098066499999988,9.80665
157,96.053,0.9833729216152018,-0.00029156505296854104,0.0004351559315642026,-0.7075125520208178,-0.7067005719079217,-0.0025416075987740425,0.004702806139830338,-0.0010108363605104156,0.0,-0.0098066499999988,9.80665
158,96.155,1.0,-0.00018184863670676947,0.0004039003090861273,-0.7074974423761206,-0.7067157527709557,-0.006918394714593961,0.012377987336367496,-0.002123639779165407,0.0,-0.0098066499999988,9.80665
159,96.246,0.8808933002481389,2.6224898979493357e-05,0.0003106887012329283,-0.7074838478821783,-0.7067291417743327,-0.009957868315509693,0.018059606140709634,-0.0028666890438728263,0.0004297735059759186,-0.009376876494022877,9.828998222310748
160,96.369,0.7543424317617866,0.0013906465056682143,-0.0004574730696604433,-0.7074643491146397,-0.7067457181951122,-0.0055600524308583735,0.014278685058136929,-0.0014159853321563478,0.00523542270916326,-0.0045712272908355065,10.07889198087649
161,96.454,0.6817102137767221,0.002333539485900152,-0.0009883165698712506,-0.7074508743565845,-0.7067571734452446,-0.002520911372359831,0.011665853415708928,-0.0004134665069865356,0.008556399800796418,-0.0012502501992023261,10.251582789641414
162,96.555,0.6658595641646489,0.0024478733498968933,-0.001099579656562294,-0.7074381254213585,-0.7067700649499417,-0.00013647875841702297,0.0032731650620696122,-0.0008521677157841936,0.007100014599999897,1.3048520071950657e-15,10.654925225000014
163,96.658,0.6456310679611651,0.002088660684329277,-0.0009673457515809848,-0.707426666917462,-0.7067828711936223,0.001714961754158086,-0.007786697417497317,-0.002070433893240952,0.0030596748000001157,1.3667018722392832e-15,11.159967699999985
164,96.766,0.6310679611650486,0.0016011236609854982,-0.0007441386969654455,-0.7074190676929032,-0.7067918319018006,0.0031925683934241563,-0.01572910595685242,-0.0023673454485833387,0.0,1.4120984722134896e-15,11.53065907
165,96.854,0.4956140350877193,0.0009689554269623745,-0.0003831370078899315,-0.707422230087513,-0.7067896693782747,0.0034141667429357643,-0.014458910144865585,-0.0005320792011917659,0.0,1.4078710639619237e-15,11.496139662000003
166,96.955,0.48068669527896996,0.00024339870382215413,3.119447616267224e-05,-0.7074258596540538,-0.706787187391046,0.003668501212261602,-0.013001071769744244,0.0015743059236555082,0.0,1.403019152218649e-15,11.456520796000003
167,97.053,0.44539614561027835,-0.0002339623294766422,0.00026792206533153215,-0.7074357410746404,-0.7067774298712822,0.003391864907927848,-0.010561714066192714,0.0017366776579293007,0.0,1.3921960263200378e-15,11.368143266200008
168,97.155,0.41630901287553645,-0.0006216619018831351,0.0004347096330931932,-0.7074490884524268,-0.7067637348919725,0.0028518748385831876,-0.007529265696182938,0.0009996248785173751,0.0,1.3779861699471592e-15,11.252110983400003
169,97.254,0.45278969957081544,-0.0009621917627240865,0.0005755960589101844,-0.7074601475519906,-0.7067523384026395,0.0024779009483754657,-0.004980977063998575,0.00043396482663229246,0.0,1.364194250526424e-15,11.139491414799998
170,97.378,0.36285097192224625,-0.001187119417770659,0.0006337208863258562,-0.7074633144522066,-0.706748748846595,0.00285569969192146,-0.004015376197174223,0.0005693078441545327,0.0,1.3469195231711614e-15,10.998432561200005
171,97.475,0.35853131749460043,-0.0013630708898635384,0.0006791895013203725,-0.7074657917854399,-0.7067459408874311,0.0031512358058243687,-0.003260027131997126,0.0006751810110872509,0.0,1.3334062283851899e-15,10.888088135400011
172,97.555,0.35267857142857145,-0.0015341297045283746,0.0006852795110392016,-0.7074698855246543,-0.7067414505551001,0.003418395275250086,-0.003150497411377727,0.00031432069721630334,0.0,1.313643094809116e-15,10.726709902999994
173,97.651,0.3767772511848341,-0.0017443635201011354,0.0006865786762965569,-0.7074751902961574,-0.7067356461669647,0.0037434666696935623,-0.0031172847794368893,-0.00020445015397849804,0.0,1.2882786452997217e-15,10.519593455000017
174,97.755,0.45901639344262296,-0.001969311270964597,0.0006790725634484134,-0.7074811732872073,-0.7067291071243207,0.004058923898264753,-0.0030448643891141016,-0.0006514030341059023,0.0,1.2613481331880402e-15,10.299689135400017
175,97.843,0.4322766570605187,-0.0021490314786455932,0.0006389796920305539,-0.7074871297661256,-0.7067226241149982,0.004186911089345812,-0.002845644558779897,-0.0005940850321203471,0.0,1.240633832755364e-15,10.130544036200002
176,97.955,0.3898809523809524,-0.0023777662884213744,0.0005879524011351032,-0.7074947107392943,-0.7067143730122241,0.004349803877994409,-0.002592092047445489,-0.0005211348477751052,0.0,1.2142701776592346e-15,9.915268455400012
177,98.046,0.40298507462686567,-0.002532769202217475,0.0005366270977249972,-0.7075012774181237,-0.7067073003875904,0.004222205802798265,-0.0021917204465716953,-1.573205925522363e-05,0.0,1.195443799320724e-15,9.761539409999997
178,98.168,0.34615384615384615,-0.002719210387267722,0.00046098368528020095,-0.7075103631114278,-0.7066975630851646,0.0038710807096213043,-0.001520330274477589,0.0009708640873432338,0.0,1.1720008990165844e-15,9.570113601999997
179,98.246,0.4166666666666667,-0.00289253459094204,0.00039963597566956344,-0.7075154554854971,-0.706691749868935,0.004020111858844443,-0.0013107370771466187,0.0014776231592987128,0.0,1.157204970136105e-15,9.449295674000014
180,98.355,0.5266272189349113,-0.0036490618014909048,0.00019051067291407235,-0.7075157630523862,-0.706687543914967,0.007777780230157069,-0.003105141681618985,0.0010073211103444933,0.0,1.1383545724325287e-15,9.2953704956
181,98.44,0.48520710059171596,-0.004239014213386717,2.743130837999907e-05,-0.7075160028981253,-0.7066842640426066,0.010708072079345361,-0.004504448024555934,0.0006405718061141955,0.0,1.123654721012311e-15,9.17533709960001
182,98.555,0.3149171270718232,-0.004516827245632345,-9.709416650186385e-05,-0.7077591673396899,-0.7064391209614878,0.007767288643866606,-0.0023741526752709247,0.0004024347000522527,0.0,1.1014464160725475e-15,8.993992527799996
183,98.647,0.3142857142857143,-0.004461553469846705,-0.00014545517977855734,-0.7080832135299485,-0.706114630172993,0.0017318373955785334,0.0014759366810322382,0.0003495533507084464,0.0,1.0824422944325527e-15,8.838812098199998
184,98.755,0.2553191489361702,-0.00431611489347522,-0.00020224136179620292,-0.7083947597394339,-0.705803152769681,-0.004393270049244034,0.005332817692309557,0.00023631847463550978,0.0,1.0629625893642573e-15,8.679748235200005
185,98.842,0.35877862595419846,-0.003895001896124236,-0.0002480407182423344,-0.7083859074565669,-0.7058142895197976,-0.005704975411295808,0.005938786644488535,-4.7933047171665015e-05,0.0,1.0579473459385355e-15,8.638795664800003
186,98.955,0.37089201877934275,-0.0033480390374959683,-0.000307527238683859,-0.7083744096638777,-0.7058287544940871,-0.007408684674650341,0.006725849766284186,-0.00041713329963384213,0.0,1.051433294132713e-15,8.585604395200004
187,99.05,0.41818181818181815,-0.002891346339573369,-0.0003378574647475412,-0.7083779964494812,-0.7058270804683382,-0.007558928877414498,0.007059118955444728,-0.0004460341163843675,0.0,1.0564372706434148e-15,8.626464964257023
188,99.155,0.5107758620689655,-0.0023882635469825476,-0.0003608441224091027,-0.7083890559802317,-0.7058178235813328,-0.007038612756504112,0.007251645015724692,-0.0003272787747057498,0.0,1.0675787833546214e-15,8.717442319678716
189,99.249,0.6601731601731602,-0.001947605722650926,-0.0003790048966825527,-0.7083976136407358,-0.705810759511064,-0.006499309247980555,0.007327782378221572,-6.29279772208261e-05,0.0,1.0777355664070082e-15,8.800378747222219
190,99.355,0.6796536796536796,-0.0015133339514663783,-0.00038390459783457375,-0.7083986081581822,-0.7058106746809363,-0.005417562755090781,0.006793624455375296,0.0012535203755501426,0.0,1.0903647960546583e-15,8.90350423333334
191,99.449,0.6436058700209644,-0.0011282250223027786,-0.0003882496158373088,-0.7083994900887479,-0.7058105994542193,-0.004458278129320743,0.006319937240775839,0.0024209368393280015,0.0,1.101564301591252e-15,8.994955136111114
192,99.574,0.7133891213389121,-0.0007052292198422003,-0.0003677392414306569,-0.7083988685959033,-0.7058117848122751,-0.004203840397298341,0.004891549799591256,0.0008039715150370392,0.0,1.1152863742234146e-15,9.107004362400003
193,99.645,0.740041928721174,-0.00048707684826743684,-0.00034956742712870486,-0.7083980704433095,-0.7058127769914566,-0.004312672935426237,0.003882128220051509,-0.0009007626734674288,0.0,1.1227900238699442e-15,9.168276311600001
194,99.755,0.7672955974842768,-0.00017164387502098384,-0.00031969069646674834,-0.7083967021806311,-0.7058143993478129,-0.004172011749818911,0.0025266980230808237,-0.002606186941266041,0.0,1.1340695177048047e-15,9.2603803684
195,99.842,0.7867494824016563,-1.3320014568004939e-05,-0.00028909495028045767,-0.7083950876695172,-0.705816026807159,-0.0028105408744885894,0.002297369381412853,-0.00017247274518001916,0.0,1.1415923828433874e-15,9.321809224000003
196,99.955,0.7619047619047619,0.0001923190225720625,-0.0002493556477626335,-0.7083929906608288,-0.7058181406336661,-0.0010421936456113503,0.0019995057433843523,0.002988558337092498,0.0,1.1513634605521212e-15,9.401596128400003
197,100.075,0.768595041322314,0.0003293397756724079,-0.0001992114693266574,-0.7084016221846223,-0.7058094495676186,-0.0011727758299888836,0.001301597063728841,0.003016486079488127,0.0,1.1596481929408606e-15,9.469246102208839
198,100.16,0.7817047817047817,0.0004054405552890379,-0.00016164671359163944,-0.7084105330504377,-0.7058004765891909,-0.0017826055105490996,0.0007089558959238558,0.002178819287646923,0.0,1.1649777910126707e-15,9.512765573092368
199,100.245,0.7962577962577962,0.00047280689441244286,-0.00012662274090809966,-0.708417382634952,-0.7057935762428523,-0.002254775522389922,0.00017834021498827624,0.0013415118112633183,0.0,1.170044516947248e-15,9.554138530079682
200,100.371,0.8029045643153527,0.00046333294199766125,-0.00010650947748049886,-0.7084017337448888,-0.7058092919711373,-0.0012315229809123503,0.00016819365300327216,0.00010482439506001476,0.0,1.1742646524030173e-15,9.588598551195219
201,100.45,0.8132780082987552,0.0004573929242137892,-9.389878056954062e-05,-0.7083919221392142,-0.7058191454833159,-0.000589959879509635,0.00016183191969521295,-0.0006705589849406034,0.0,1.176910610347508e-15,9.6102044374502
202,100.576,0.8164948453608247,0.00035142963699653825,-8.273083641595535e-05,-0.7083885569401451,-0.7058225717094464,0.0005977055018301917,-0.0005541735820006471,-0.0014637033711187475,0.0,1.1807151246624268e-15,9.6412706544
203,100.647,0.7711340206185567,0.0002691165021247644,-7.85333256817229e-05,-0.7083895382637873,-0.7058216234127421,0.001305460992734987,-0.0011229920410551998,-0.0018067292170599622,0.0,1.1827615745660261e-15,9.657981186000002
204,100.756,0.7761806981519507,0.00014255725852736867,-7.949518667300955e-05,-0.7083892016536574,-0.7058220071630166,0.00244171983655549,-0.0018883571936749051,-0.002146663485094877,0.0,1.1857207603421222e-15,9.6821447716
205,100.844,0.7967145790554415,3.964982649458829e-05,-0.00010859377265422262,-0.7083818812508864,-0.705829351997422,0.0035491488715633664,-0.002093664293643086,-0.0017071858029812604,0.0,1.1874117236427486e-15,9.6959525348
206,100.991,0.7653276955602537,-0.0001335673457324388,-0.00015712657454878095,-0.7083703045797857,-0.705840964200578,0.005298679590225158,-0.002428157038986684,-0.0010265330206603218,0.0,1.1902171854824245e-15,9.7188608692
207,101.046,0.7906976744186046,-0.00021596552937136232,-0.00017428107008116142,-0.708374690601565,-0.7058365208502257,0.004610609470866474,-0.002440101772546771,-0.001487136723473766,0.0,1.1910098245295932e-15,9.725333258200001
208,101.173,0.8202479338842975,-0.00040623042613757335,-0.0002138923597650154,-0.7083848183245826,-0.7058262607503215,0.0030217930134384943,-0.0024676832482218762,-0.0025507125463337292,0.0,1.1928401001476007e-15,9.740278592800001
209,101.243,0.797938144329897,-0.0005101295268535495,-0.0002304705220926379,-0.7083911553423884,-0.705819845625902,0.0022380733396857983,-0.002497406719252468,-0.003024391128215936,0.0,1.193791267004203e-15,9.7480454596
210,101.355,0.7975206611570248,-0.0006597909816618812,-0.0001673131159171207,-0.7084141766319944,-0.7057966115922679,0.002554356446489718,-0.002792790753766919,-0.0018615205907261902,0.0,1.1943293007816751e-15,9.752438838800002
211,101.45,0.8442105263157895,-0.0007867359656510793,-0.0001137421017503923,-0.7084337036187137,-0.7057769041530246,0.0028226322960108745,-0.0030433397116139743,-0.0008751571883912285,0.0,1.1947856687179238e-15,9.756165365800001
212,101.555,0.7557894736842106,-0.0009758995465326401,-6.36203478175284e-05,-0.7084329816345846,-0.7057773722641998,0.002334567186422541,-0.0031132834870368194,-0.0005791857619770024,0.0,1.1956167387491976e-15,9.762951567600002
213,101.663,0.7875,-0.0011978107204991563,-1.7152944916460372e-05,-0.7084197560314738,-0.7057903062808983,0.001393455991521461,-0.0030693871248513452,-0.0007192540778778515,0.0,1.1966543753200364e-15,9.7714245132
214,101.755,0.8089171974522293,-0.0013710839661907688,1.9164169866693043e-05,-0.7084115108774619,-0.7057983032961378,0.0007256909899879239,-0.003044895486906171,-0.0007664069563616046,0.0,1.1974518182402182e-15,9.7779361288
215,101.849,0.8021505376344086,-0.0014819151720292833,4.255104985574896e-05,-0.7084157765624981,-0.7057937851266705,0.0006059477678500002,-0.003074064204469326,-0.0005114588169380775,0.0,1.1979033823034537e-15,9.7816234292
216,101.955,0.9247311827956989,-0.0016068950424429098,6.892348899234024e-05,-0.7084205868030709,-0.7057886901696117,0.0004709181769285306,-0.0031069565881043683,-0.00022396410652435325,0.0,1.1984125928428468e-15,9.7857814488
217,102.074,0.8580645161290322,-0.001688681511676517,9.436287598100964e-05,-0.7084222465585873,-0.7057868345485852,0.0009540217843605404,-0.002351576579967485,-0.00025930619845167236,0.0,1.1985663167792674e-15,9.7870367
218,102.155,0.864406779661017,-0.0017296998158109404,0.00011063539977657187,-0.7084224398482533,-0.7057865389257878,0.0014417602655012545,-0.0016390467807650005,-0.0003730161844287155,0.0,1.1985663167792674e-15,9.7870367
219,102.258,0.89171974522293,-0.001774336566095025,0.00013290446482351755,-0.7084244405708292,-0.7057844185900334,0.0019661131836473953,-0.000919084291206673,-0.00028918253292794507,0.0,1.1986671981125435e-15,9.787860458599999
220,102.355,0.8955223880597015,-0.0017887112609197688,0.00015967482919974766,-0.7084327781671114,-0.7057760070119667,0.0021074235886335505,-0.000925384551286698,0.0006297652791255095,0.0,1.1991331737948184e-15,9.7916654388
221,102.475,0.9339019189765458,-0.0018064943885380054,0.00019279280574765564,-0.7084430927192131,-0.7057656009360079,0.0022822405844926826,-0.0009331786874681709,0.0017666079332120674,0.0,1.1997096385563956e-15,9.796372630799999
222,102.555,0.8662420382165605,-0.001796880972889829,0.00021175494285579271,-0.7084352936645992,-0.7057734477965956,0.0020913097633444558,-0.0005761321870550885,0.0012585513246076035,0.0,1.1997672850325534e-15,9.79684335
223,102.658,0.8486140724946695,-0.0017796258548570388,0.00023546060408659054,-0.7084219180394247,-0.7057869096969325,0.0017756260922325193,-3.413117021379235e-05,0.0003167967654408698,0.0,1.1997672850325534e-15,9.79684335
224,102.79,0.811965811965812,-0.0017312204889643865,0.0002493479344126556,-0.7084077415917466,-0.7058012520096637,0.0013009167224713324,0.0005439909505903127,0.00013887567628514665,0.0,1.1997672850325534e-15,9.79684335
225,102.845,0.8240343347639485,-0.0016924951503548892,0.0002434940375984236,-0.7084039274750091,-0.7058051742657734,0.0010536148359901062,0.0007026648504267377,0.0007909831842162411,0.0,1.1997672850325534e-15,9.79684335
226,102.955,0.8154506437768241,-0.0016150444731358846,0.00023178624396995805,-0.7083962992415341,-0.7058130187779926,0.0005590110630275896,0.0010200126500996285,0.002095198200078598,0.0,1.1997672850325534e-15,9.79684335
227,103.075,0.9182389937106918,-0.0015592773812206204,0.00017716075078861551,-0.708395702680469,-0.7058137564571014,3.920422156805626e-05,0.0010036664623767097,0.0019787108362652166,0.0,1.1997672850325534e-15,9.79684335
228,103.162,0.8037578288100209,-0.0015267454924710582,0.00012604759569581278,-0.7083973945894463,-0.7058121407825445,-0.0003322214880027159,0.0008921159347519195,0.0014709589676931115,0.0,1.1997672850325534e-15,9.79684335
229,103.25,0.817047817047817,-0.0014924066185577683,7.420166700658068e-05,-0.708396795693015,-0.705812825877918,-0.0006783816087991008,0.0008630220899358418,0.0009735741359181682,0.0,1.199824931508711e-15,9.7973140692
230,103.355,0.9002079002079002,-0.001440604759384941,1.1242298294300758e-05,-0.7083786229415401,-0.7058311701587633,-0.0008682240811176678,0.0014611072796397164,0.0005025487268576199,0.0,1.2003293381750912e-15,9.8014328622
231,103.47,0.8482328482328483,-0.0013838693898147066,-5.7713200771523966e-05,-0.7083587194518295,-0.7058512615139747,-0.001076146788895129,0.002116152963601049,-1.3336244970557154e-05,0.0,1.2008817835716026e-15,9.805943921199999
232,103.555,0.8066528066528067,-0.0013549762346790725,-8.431902095429002e-05,-0.7083581999409707,-0.7058518368915794,-0.0008874296174183501,0.0015691182311331287,-0.00019169516745024684,0.0,1.2009682532858392e-15,9.80665
233,103.642,0.8580375782881002,-0.0013289894172378036,-0.00010485204099211573,-0.7083615706299705,-0.7058485005633086,-0.0006001197847117718,0.0007256550203059318,-0.0003184447006788092,0.0,1.2009682532858392e-15,9.80665
234,103.756,0.8121085594989561,-0.0012933885205591853,-0.00012887077263000715,-0.7083652436604956,-0.7058448778470329,-0.0002771827235475831,-0.00020723429945656896,-0.0005603573969280596,0.0,1.2009682532858392e-15,9.80665
235,103.859,0.8930041152263375,-0.0012503480490335232,-0.00013030918708944005,-0.7083633415816886,-0.7058468625176368,-0.00036121913783099984,0.0001596327101317505,-0.0013112011430927426,0.0,1.2009682532858392e-15,9.80665
236,103.96,0.8061855670103093,-0.001208143314819037,-0.00013171967117101994,-0.7083614764364505,-0.7058488086509475,-0.0004436237770797908,0.000519376088465944,-0.002047465399040669,0.0,1.2009682532858392e-15,9.80665
237,104.075,0.859504132231405,-0.0011591376901695096,-0.00017282477093834582,-0.7083618346240493,-0.7058485191799859,0.0003075698210646459,0.0005003296397023426,-0.0023173636736429915,0.0,1.2009682532858392e-15,9.80665
238,104.183,0.8264462809917356,-0.0011128276597367785,-0.0002233663806344073,-0.7083629211506827,-0.7058474900851435,0.0012684451366044107,0.0003528819739237834,-0.0023990283224850444,0.0,1.2009682532858392e-15,9.80665
239,104.27,0.8902691511387164,-0.0010822091731406541,-0.0002541870423230622,-0.7083697593629442,-0.7058406670177491,0.001559838724555503,0.00028883942309766643,-0.0022346697184257762,0.0,1.2009682532858392e-15,9.80665
240,104.39,0.8385093167701864,-0.0010566380316299404,-0.00027204730466699344,-0.7083940490200336,-0.7058163207106731,0.0007591752775479358,0.0003368850788101537,-0.0014345281566493463,0.0,1.2009682532858392e-15,9.80665
241,104.452,0.9230769230769231,-0.0010434262751827393,-0.00028127510687802384,-0.7084065986761964,-0.7058037417853505,0.00034549916326072436,0.0003617086675949369,-0.0010211216830648892,0.0,1.2009682532858392e-15,9.80665
242,104.558,0.8586278586278586,-0.0010147256719012065,-0.00025966303753637905,-0.7084201431583991,-0.7057901957753717,-0.000515387330397695,-9.782774495471509e-05,-0.0006465315221453874,0.0,1.2009682532858392e-15,9.80665
243,104.653,0.8343685300207039,-0.0009860657304761715,-0.00022232530654197548,-0.7084284799884042,-0.7057818808907841,-0.0013607706651167374,-0.0007509189989275625,-0.00047046506745483955,0.0,1.2009682532858392e-15,9.80665
244,104.755,0.8571428571428571,-0.0009610456162849276,-0.00018561087499888295,-0.7084364087586005,-0.7057739698363297,-0.00185939522860831,-0.0013822410515401953,-0.0003946769579760818,0.0,1.2009682532858392e-15,9.80665
245,104.854,0.8819875776397516,-0.0009628128086369241,-0.0001652607827688466,-0.7084394736740233,-0.7057708956334573,-0.0004905976894945788,-0.0016784264531684177,-0.0008340813249694762,0.0,1.2009682532858392e-15,9.80665
246,104.955,0.7975206611570248,-0.0009646157018445163,-0.00014449957756446706,-0.7084426005069294,-0.7057677593254763,0.0009058523251567379,-0.001980595398263863,-0.001282362547861706,0.0,1.2009682532858392e-15,9.80665
247,105.056,0.8966942148760331,-0.0009767171289219916,-0.00012599237529492384,-0.7084414256292799,-0.7057689252506478,0.0016749799093862176,-0.0019474644751929972,-0.000946408723929988,0.0,1.2009682532858392e-15,9.80665
248,105.173,0.8176100628930818,-0.0009965251651916512,-0.00010582047722778798,-0.7084376463294786,-0.7057726944735461,0.002213286134818808,-0.0017205887595636877,-0.00011635919874238032,0.0,1.2009682532858392e-15,9.80665
249,105.263,0.8972746331236897,-0.0010094040981784833,-8.897663584517584e-05,-0.7084376934409873,-0.7057726314473326,0.0023406255654990606,-0.0013799687391146936,0.0004998790598474501,0.0,1.2009682532858392e-15,9.80665
250,105.356,0.8865546218487395,-0.0010160116278104445,-6.780045074969368e-05,-0.7084461371598284,-0.705764148086087,0.0016573836614844177,-0.0005559932049364717,0.0010733991831074798,0.0,1.2009682532858392e-15,9.80665
251,105.457,0.8987341772151899,-0.0010231875470881667,-4.480265833416761e-05,-0.7084553072200753,-0.7057549349733363,0.0009153682603501568,0.00033886194508513275,0.0016962543707340298,0.0,1.2009682532858392e-15,9.80665
252,105.555,0.8755274261603375,-0.0010170710473124253,-3.847912135829376e-05,-0.708449945891516,-0.7057603259372959,0.001157865211862988,0.00027603838700368126,0.001491554005143844,0.0,1.2009682532858392e-15,9.80665
253,105.675,0.825,-0.0010018163957510038,-4.02298346388305e-05,-0.7084349155384576,-0.7057754349736224,0.002026212375483055,-0.0003536743792775727,0.0007605710541328567,0.0,1.2009682532858392e-15,9.80665
254,105.768,0.8597938144329897,-0.0009844808631328601,-4.101322212294373e-05,-0.7084267918769146,-0.7057836134513426,0.002406310671603808,-0.000754578136530412,0.0002923581077591825,0.0,1.2009682532858392e-15,9.80665
255,105.866,0.9152892561983471,-0.0009527267758878938,-4.043601772298913e-05,-0.7084268541058542,-0.7057835939086609,0.00209041321033006,-0.0009639108341737056,3.9434640076437954e-05,0.0,1.2009682532858392e-15,9.80665
256,105.982,0.8119834710743802,-0.0009151403052714028,-3.9752796188348976e-05,-0.7084269277645988,-0.705783570776507,0.0017164937663733753,-0.0012116923946494428,-0.0002599441584051804,0.0,1.2009682532858392e-15,9.80665
257,106.052,0.8512396694214877,-0.0009000856990698674,-3.425931726247552e-05,-0.7084292369375114,-0.705781272292778,0.001050596339628076,-0.0013130904533900354,-0.0002099535331362831,0.0,1.2009682532858392e-15,9.80665
258,106.162,0.8930041152263375,-0.0008777601390319824,-2.4739515605049543e-05,-0.7084332610657449,-0.7057772615045153,-7.268406450750301e-05,-0.0014640274303965295,-9.112457127775781e-05,0.0,1.2009682532858392e-15,9.80665
259,106.258,0.9030927835051547,-0.0008627954599487542,-2.2202097091051167e-05,-0.7084347431328806,-0.7057757926972926,-0.0007790007955627885,-0.0013872934714891857,-0.0002510253363287817,0.0,1.2009682532858392e-15,9.80665
260,106.359,0.9381443298969072,-0.0008663209603315135,-4.413739747349097e-05,-0.7084276474968068,-0.7057829091815392,-0.00035384633578364145,-0.0004177474649623967,-0.001543192961253102,0.0,1.2009682532858392e-15,9.80665
261,106.475,0.9352818371607515,-0.0008703700498800292,-6.93304157345111e-05,-0.7084194980533953,-0.7057910825693868,0.00013444987544785703,0.0006957905227317441,-0.003027266669086984,0.0,1.2009682532858392e-15,9.80665
262,106.567,0.9290187891440501,-0.000885202096455112,-6.429990019005683e-05,-0.7084305417108976,-0.7057799788994853,-5.137701285999461e-05,0.0002761859539897048,-0.0011085235644134927,0.0,1.2013429553808642e-15,9.809709674799999
263,106.652,0.9647302904564315,-0.0009008326847251842,-5.550452275869372e-05,-0.7084436482870065,-0.7057668037760584,-0.000318101770826605,-0.0003275288175791267,0.0011776009630410974,0.0,1.2017512845869814e-15,9.8130439358
264,106.762,0.9273858921161826,-0.0009214242317347464,-4.80108645321804e-05,-0.7084544557105258,-0.7057559298306748,-0.0002557080253027943,-0.0010805234713479645,0.0031063843376469558,0.0,1.2020587324598226e-15,9.8155544382
265,106.854,0.8633540372670807,-0.0009397969525025886,-5.404554158041265e-05,-0.7084440255400638,-0.7057663745544652,0.0010858694952911882,-0.0016208227863534982,0.0014618550648448042,0.0,1.2016167761426135e-15,9.811945590999999
266,106.962,0.927536231884058,-0.0009613649290561437,-6.112972768051176e-05,-0.7084317814269127,-0.7057786357519583,0.0026607648455537706,-0.0022550871996208964,-0.0004686792988795605,0.0,1.201097957857194e-15,9.8077091182
267,107.064,0.8757763975155279,-0.0009898235829235015,-5.679159160443117e-05,-0.7084255841528435,-0.7057848166117324,0.002867181114741136,-0.002028976195117139,-0.0005391329230993445,0.0,1.2009682532858392e-15,9.80665
268,107.159,0.9214876033057852,-0.0010190413519135372,-4.905329364302878e-05,-0.7084216115748537,-0.70578876298824,0.002629924861461913,-0.0015417185252108957,-1.703829859820479e-05,0.0,1.2009682532858392e-15,9.80665
269,107.262,0.9380165289256198,-0.001043924567404036,-4.3650376671789534e-05,-0.708420847363261,-0.7057894949492375,0.0022722259567554436,-0.000864127649918077,0.000502158775963207,0.0,1.2009682532858392e-15,9.80665
270,107.355,0.8553719008264463,-0.0010438029191057962,-4.870196858677855e-05,-0.7084319352199958,-0.7057783651986062,0.001615279321765268,0.00024400792702394835,0.0008151575067689154,0.0,1.2009682532858392e-15,9.80665
271,107.458,0.8760330578512396,-0.0010436681903453798,-5.429674242810996e-05,-0.7084442153193902,-0.7057660387005952,0.0008876932636579357,0.0014712978670779068,0.001161812015080582,0.0,1.2009682532858392e-15,9.80665
272,107.555,0.8385093167701864,-0.001055910481168537,-7.355108586360899e-05,-0.70844768231805,-0.7057625378228166,0.0012955381191777715,0.0012120685315888894,0.001102109290789279,0.0,1.2009682532858392e-15,9.80665
273,107.662,0.8786610878661087,-0.0010755242714138545,-0.0001016981507776703,-0.7084475070786895,-0.7057626805390342,0.0022853090797933457,0.0002272015247786808,0.0008455168120043489,0.0,1.2009682532858392e-15,9.80665
274,107.765,0.9205020920502092,-0.0010993546138022678,-0.0001292759279345714,-0.708446381522173,-0.7057637692013986,0.002996422557264151,-0.0005902503868722541,0.0006693191895914438,0.0,1.2009682532858392e-15,9.80665
275,107.872,0.8663883089770354,-0.0011393386440588424,-0.00015941047245018086,-0.708442268402307,-0.7057678268061768,0.0029916832542633155,-0.001037657887728672,0.0007041066999090802,0.0,1.2009682532858392e-15,9.80665
276,107.956,0.8058455114822547,-0.0011707279762228839,-0.00018306749805122112,-0.7084390394110103,-0.7057710122155353,0.0029879626799449023,-0.001388893682793539,0.0007314165210930202,0.0,1.2009682532858392e-15,9.80665
277,108.062,0.86875,-0.0012130830099082548,-0.0001974109072933481,-0.7084349300498194,-0.7057750612635209,0.0024843751903503076,-0.0013671530102710057,0.0008631245112947904,0.0,1.2009682532858392e-15,9.80665
278,108.155,0.8790983606557377,-0.0012513807041621317,-0.0002035695048543646,-0.708431310297977,-0.7057786258962045,0.0018358531975066971,-0.0011554391019143874,0.0010189692806189695,0.0,1.2009682532858392e-15,9.80665
279,108.259,0.897119341563786,-0.0012821498562879203,-0.00020704356620338023,-0.7084278545187743,-0.7057820400042388,0.0009822367768113657,-0.0009170242556137935,0.0011641497937186316,0.0,1.2009682532858392e-15,9.80665
280,108.358,0.9567010309278351,-0.0012660717354164657,-0.00019750976522105417,-0.7084267926353994,-0.7057831373446946,-0.00031338082182983903,-0.000683827990932108,0.0011928750955987565,0.0,1.2009682532858392e-15,9.80665
281,108.475,0.8731808731808732,-0.0012470703198411127,-0.00018624254587830657,-0.70842553768232,-0.7057844342015968,-0.0018445652565874404,-0.00040823240539924035,0.0012268231796389,0.0,1.2009682532858392e-15,9.80665
282,108.565,0.8087318087318087,-0.0012533396918493066,-0.00015478992225478384,-0.7084208095237695,-0.7057891749129789,-0.001960565565632603,-0.0005760824704817367,0.0009778726258569265,0.0,1.2009682532858392e-15,9.80665
283,108.659,0.8695652173913043,-0.001264250523679207,-0.00011717975982307516,-0.7084150852156331,-0.7057949082207337,-0.0018599161463585482,-0.0008307382871630812,0.0006603996926385909,0.0,1.2009682532858392e-15,9.80665
284,108.763,0.9232365145228216,-0.0012735861777064012,-7.907490721019093e-05,-0.7084108295341445,-0.7057991697523767,-0.0017721682621435408,-0.0010697818239664622,0.00021384821269174086,0.0,1.2009682532858392e-15,9.80665
285,108.861,0.897489539748954,-0.0012727740888831187,-5.5483690107330246e-05,-0.7084141163824565,-0.7057958739924045,-0.0017724028965233859,-0.001145050159644296,-0.0005416739062288832,0.0,1.2009682532858392e-15,9.80665
286,108.966,0.8347280334728033,-0.0012719039937153158,-3.0207386068553134e-05,-0.7084176380056482,-0.7057923428210057,-0.0017726542905017913,-0.0012256948050133965,-0.0013511618907866242,0.0,1.2009682532858392e-15,9.80665
287,109.075,0.89375,-0.001288947998194156,-5.944388493334768e-06,-0.7084131634200592,-0.7057968029981909,-0.0012260425178100775,-0.001295907332096254,-0.001501249263528731,0.0,1.2009682532858392e-15,9.80665
288,109.195,0.8405797101449275,-0.0013132908923696874,2.0152867956639798e-05,-0.7084057099687188,-0.7058042391893576,-0.00045427418721375227,-0.00136900775367394,-0.0014519243896938866,0.0,1.2009682532858392e-15,9.80665
289,109.256,0.9337474120082816,-0.001320217631238945,3.0782185398062074e-05,-0.7084047034322923,-0.7058052366319815,-2.8487344655495577e-05,-0.0013561272080913358,-0.0014393654150101725,0.0,1.2009682532858392e-15,9.80665
290,109.361,0.824634655532359,-0.0013057680139333485,3.631336406252724e-05,-0.7084164405149017,-0.7057934823475004,0.0008664651835556796,-0.0010917030589792155,-0.0014783325753512397,0.0,1.2009682532858392e-15,9.80665
291,109.464,0.8956158663883089,-0.001291593627433574,4.1739186942906855e-05,-0.7084279540340328,-0.7057819519541524,0.0017443709969437039,-0.0008323155603263972,-0.0015165575040667594,0.0,1.2009682532858392e-15,9.80665
292,109.566,0.8778467908902692,-0.0012786587579924193,5.0759786877192256e-05,-0.7084395666170906,-0.7057703183247431,0.0018234112416393997,-0.0005096174427308047,-0.000784343760460587,0.0,1.2009682532858392e-15,9.80665
293,109.663,0.8721649484536083,-0.0012667351900514927,6.05869174687421e-05,-0.7084506821395147,-0.7057591813032221,0.001628000983968383,-0.00018020112765953947,0.00017561204545196957,0.0,1.2009682532858392e-15,9.80665
294,109.755,0.88125,-0.0012561635981390904,6.839246568683864e-05,-0.7084615084981994,-0.7057483320667007,0.0014889253657311148,2.477631717922117e-05,0.00106532041355964,0.0,1.2009682532858392e-15,9.80665
295,109.857,0.91875,-0.001248997601199994,6.768807915036491e-05,-0.7084752646811312,-0.7057345351573324,0.00162049373332411,-0.00041174015076830817,0.0019234693106263848,0.0,1.2009682532858392e-15,9.80665
296,109.961,0.8682008368200836,-0.0012416910945169941,6.696988111317605e-05,-0.7084892905931399,-0.7057204677203294,0.0017546418728306874,-0.0008568157651461609,0.002798444656655183,0.0,1.2009682532858392e-15,9.80665
297,110.06,0.8786610878661087,-0.0012447896517177722,5.800799646997431e-05,-0.708486901672505,-0.7057228611834281,0.001979322707657491,-0.0008802685354437086,0.001264307154564175,0.0,1.2009682532858392e-15,9.80665
298,110.164,0.8739669421487604,-0.0012526366828680754,4.4812488328274726e-05,-0.7084772027579211,-0.7057325849989694,0.0022596468038428414,-0.0007221065018148574,-0.0014284401004839627,0.0,1.2009682532858392e-15,9.80665
299,110.267,0.8353909465020576,-0.00125512892324389,3.070472888606431e-05,-0.708473528176665,-0.7057362701893252,0.002357434487980805,-0.00048396674122449786,-0.003174341306361822,0.0,1.2009682532858392e-15,9.80665
300,110.363,0.8677685950413223,-0.0012412549824058457,1.4367735086229964e-05,-0.7084882996305687,-0.7057214655112186,0.001896831239969542,-1.1976954889148352e-05,-0.0019761371626122186,0.0,1.2009682532858392e-15,9.80665
301,110.466,0.8512396694214877,-0.0012263694000483618,-3.160497844840687e-06,-0.7085041481696529,-0.7057055813253335,0.0014026423384575029,0.0004944287533664405,-0.0006905639667143249,0.0,1.2009682532858392e-15,9.80665
302,110.559,0.890495867768595,-0.0012165575443077378,-2.313976972923768e-05,-0.7085065167144979,-0.7057032198052313,0.0010350087171270134,0.0004902954956106595,-0.0008120405458960302,0.0,1.2009682532858392e-15,9.80665
303,110.661,0.8925619834710744,-0.0012071803878704406,-4.663676089319011e-05,-0.7085045590260871,-0.7057052001565545,0.0006617732598600175,0.00030975445441296296,-0.00143442919433297,0.0,1.2009682532858392e-15,9.80665
304,110.766,0.9152892561983471,-0.0010719125530394963,-0.00017706872459773593,-0.7085029720679524,-0.7057068082562299,6.543002446664562e-05,0.004534650403244308,-0.0017138613538954452,0.0,1.2009682532858392e-15,9.80665
305,110.869,0.8600823045267489,-0.0005449101594354965,-0.0006385208828285873,-0.7085027598210278,-0.7057070343739894,-0.0011854412944204144,0.022524617076922004,-0.0008539522579126622,0.0,1.2009682532858392e-15,9.80665
306,110.96,0.8251028806584362,-7.930610295041503e-05,-0.001046211624566519,-0.7085025723019003,-0.7057072341479323,-0.00229058003246625,0.03841866530318075,-9.422674592788238e-05,0.0,1.2009682532858392e-15,9.80665
307,111.06,0.7365145228215768,0.0027949044266580565,-0.00346819798414135,-0.7084778963417809,-0.705695924449363,-0.004960597418248896,0.07086047440767576,0.00024171092431061005,0.0,1.2009682532858392e-15,9.80665
308,111.192,0.697286012526096,0.00792539497892966,-0.0077819255844436535,-0.7084314811051706,-0.7056744733969254,-0.00930846232175821,0.1221556988954537,0.0004028993493411518,0.0,1.2009682532858392e-15,9.80665
309,111.275,0.6597077244258872,0.011829548313404542,-0.01106888563543661,-0.7083777391514692,-0.7056163441118873,-0.010875763863118155,0.14016557029551913,0.0005077817145825524,0.0,1.2009682532858392e-15,9.80665
310,111.367,0.6864754098360656,0.01718794481016237,-0.015585643595677889,-0.7082808403201103,-0.7054840509971824,-0.010839646656273138,0.1384755631406155,0.0006294014891618682,0.0,1.2009682532858392e-15,9.80665
311,111.475,0.681912681912682,0.023478236349834102,-0.020887924679438962,-0.7081670895180803,-0.7053287503842679,-0.010797248196063773,0.1364916416979027,0.0007721725288854013,0.0,1.2009682532858392e-15,9.80665
312,111.565,0.6632016632016632,0.027065792914966885,-0.023894183803004544,-0.7080594938121869,-0.7052096051331799,-0.009380973497757334,0.11444324254989782,0.0006412846659474704,0.0,1.2016724354745127e-15,9.812400083935742
313,111.661,0.7368421052631579,0.030481575598192256,-0.026750040203870454,-0.7079415446785251,-0.7050850684306171,-0.007527251810164573,0.08585876226425165,0.00043960433873163575,0.0,1.2025984832842754e-15,9.819961838152611
314,111.757,0.7452631578947368,0.03360659664506531,-0.029360715101436237,-0.7078312418524247,-0.7049691909749837,-0.005772559024393488,0.06046584177017159,9.134552115567718e-05,0.0,1.2035239137288315e-15,9.8275185512
315,111.856,0.7395833333333334,0.035330034912211775,-0.030788756463159903,-0.707756918336372,-0.7048943415908409,-0.004473649864085086,0.050735872685909775,-0.0010235917253884905,0.0,1.2044750805854339e-15,9.835285418
316,111.967,0.6962809917355371,0.03726237478749748,-0.03238989374751697,-0.7076735859092826,-0.7048104195540745,-0.0030172971691936373,0.039826513409614656,-0.002273672880604858,0.0,1.2055415403943517e-15,9.8439937232
317,112.069,0.7226890756302521,0.03858246485071797,-0.03348530582689448,-0.7076085051048729,-0.7047533539681404,-0.0017480516305658604,0.031061337903141733,-0.003135379906743791,0.0,1.2061468283940078e-15,9.8489362748
318,112.155,0.7226890756302521,0.03957729393837247,-0.03431136916194003,-0.7075566151499891,-0.704710441863793,-0.0006958102411590335,0.02399787661433208,-0.0037874574959278246,0.0,1.206559961473138e-15,9.852309762400001
319,112.263,0.6750524109014675,0.0404947158933931,-0.03508545050537631,-0.707509708339291,-0.704669504773388,0.000439724364189035,0.013301968359317061,-0.004248664293260051,-0.0008595470119523924,1.2069730945522684e-15,9.85568325
320,112.363,0.6652360515021459,0.040142865290511975,-0.034849168725334244,-0.7075323589946804,-0.7046784821094902,0.0008183298911945617,-0.003209154214338549,-0.003381069784843016,-0.004766578884462056,1.2069730945522684e-15,9.85568325
321,112.447,0.6462585034013606,0.03984731078409181,-0.034650692030098885,-0.7075513855452074,-0.7046860230718162,0.0011363585338792343,-0.01707849717621058,-0.0026522903977726376,-0.008048485657370484,1.2069730945522684e-15,9.85568325
322,112.569,0.668235294117647,0.03906597117695845,-0.03407935655466842,-0.7075938699287557,-0.7047141327843898,0.0019432963451826877,-0.019501625563964328,-0.0014189862052163863,-0.00980665,1.2069730945522684e-15,9.85568325
323,112.661,0.6168674698795181,0.03832159937310145,-0.03352376177485204,-0.7076324520865912,-0.7047428916394824,0.002703867901311104,-0.013519383188950478,-0.00041190084071369504,-0.00980665,1.2069730945522684e-15,9.85568325
324,112.759,0.6578313253012048,0.037695805563701994,-0.033054525468873885,-0.7087503870734259,-0.7036534234355709,0.003498176284134393,-0.0072607415840029305,0.010933793255128365,-0.00980665,1.2069730945522684e-15,9.85568325
325,112.862,0.6714628297362111,0.03781875334505001,-0.03313400478665036,-0.7149554806450925,-0.6972761446516161,0.004258898876607382,-0.0012141167782249856,0.07084527504781442,-0.00980665,1.2069730945522684e-15,9.85568325
326,112.963,0.6426858513189448,0.037939313790837884,-0.03321194081670302,-0.7210400869629406,-0.6910226965236601,0.005004850156605201,0.004715097837149771,0.12959342709695584,-0.00980665,1.2069730945522684e-15,9.85568325
327,113.064,0.6619385342789598,0.03783698043433623,-0.03382702171608038,-0.7248801214943533,-0.6869846351061157,0.006500515751540543,0.007082399576902338,0.11873817971349013,-0.00980665,1.2069730945522684e-15,9.85568325
328,113.179,0.6879432624113475,0.03762311815694521,-0.034761947883108664,-0.728272169336329,-0.6833543651491428,0.008530923016369384,0.008222252912819418,0.07598044908046633,-0.00980665,1.2069730945522684e-15,9.85568325
329,113.258,0.6492890995260664,0.03749893244277946,-0.03534103972289106,-0.7302913168742173,-0.681188860456737,0.009068701313343034,0.008411651374772301,0.05104964877665088,-0.010473502199999839,0.0006668522000010463,9.85568325
330,113.371,0.592326139088729,0.037439866335269155,-0.035839866184156056,-0.7315568591115474,-0.6798041739302578,0.005367113421671241,0.005585779529065013,0.03856111213564923,-0.01490610799999982,0.005099458000001028,9.85568325
331,113.469,0.6378896882494005,0.037388640861499164,-0.03627247674348322,-0.7326544090164886,-0.6786032953497715,0.0021568867545576726,0.0031350234150887965,0.02773034584522309,-0.018750314799999782,0.008943664800000988,9.85568325
332,113.566,0.6143187066974596,0.03737376263149583,-0.036465110979971065,-0.7333022524901994,-0.6778941296043105,0.0008447018374996779,0.0020363106038903673,0.021821200305900186,-0.016683026095617476,0.009806650000001207,9.858613523904383
333,113.665,0.5819477434679335,0.037369302834812664,-0.03659119418598334,-0.7338321727199926,-0.6773138830037442,6.389307772804924e-05,0.0013122337497399523,0.01723057159270883,-0.012815064541832542,0.009806650000001207,9.862481485458167
334,113.756,0.6253041362530414,0.037366591429664114,-0.03669341006185846,-0.734283263774893,-0.676820038063539,-0.0005240622095774958,0.0006450193800428914,0.01300888024569773,-0.00980665,0.00980665000000121,9.8654899
335,113.875,0.6058394160583942,0.03737302869730678,-0.03672869492260468,-0.7346141762223585,-0.6764584308199832,-0.0003596686842957964,-0.00023935022661049517,0.007473660288864916,-0.00980665,0.00980665000000121,9.8654899
336,113.955,0.5990453460620525,0.0373773562721926,-0.036752415837392055,-0.734836638371915,-0.6762153335133911,-0.0002491520286442359,-0.000833884415957298,0.003752504015363938,-0.00980665,0.00980665000000121,9.8654899
337,114.06,0.5441527446300716,0.03708108573848762,-0.03650003096649338,-0.7350733444556657,-0.6759877355966644,-0.00017155191628262295,-0.008523873587604893,0.002737063216045525,-0.012513285400000103,0.012513285400001312,9.8654899
338,114.176,0.5696821515892421,0.036579733835316354,-0.03605778637553476,-0.7353029876659297,-0.6757890156120818,-0.00012470200890675096,-0.021002193286549543,0.0038450809661299233,-0.01706357100000009,0.017063571000001297,9.8654899
339,114.267,0.569620253164557,0.03586949673470249,-0.03543075023645485,-0.735477653564459,-0.6756684125583843,0.0001398388386111822,-0.030706008614237123,0.00403064129404746,-0.0196133,0.02062912828685363,9.864474071713147
340,114.355,0.5645569620253165,0.034416457133599074,-0.0341472138148881,-0.7356333002254261,-0.6756371003367888,0.0009463545883703522,-0.03988391252242021,0.0025572786603931517,-0.0196133,0.024067316334662647,9.86103588366534
341,114.451,0.5326876513317191,0.032831323023304756,-0.03274699226408829,-0.7358030965828446,-0.6756029415495937,0.0018261899517438144,-0.049896171331345204,0.000949973969134231,-0.0196133,0.02781806693227172,9.85728513306773
342,114.59,0.5412621359223301,0.03026346949619662,-0.03047377014311984,-0.7360268341402143,-0.6755812105868801,0.001476535331726841,-0.05274004907722013,0.00023721442400177853,-0.0196133,0.025591058764941343,9.85951214123506
343,114.653,0.5144356955380578,0.029047910745658906,-0.029396848892917844,-0.73612404723075,-0.6755766190992987,0.0010101954204324768,-0.05181935478550968,0.000220303102632974,-0.0196133,0.023129628685259883,9.861973571314742
344,114.755,0.5344352617079889,0.027104190222500494,-0.027669776747160032,-0.7362769825170522,-0.6755696832017487,0.00027788285809815917,-0.05024892356560891,0.00029707394143376354,-0.0196133,0.020085909638555423,9.864544680722892
345,114.867,0.5416666666666666,0.025170248680188842,-0.02590938672277803,-0.736408203982064,-0.6755661679923677,-0.0003391689064316188,-0.04786748940267227,0.00123908605515853,-0.0196133,0.0244969329317283,9.855722634136546
346,114.956,0.5028089887640449,0.02363345584745919,-0.024510505364117467,-0.7365124781819393,-0.6755633746563418,-0.0008295046836025563,-0.04597509975533887,0.001987649252671889,-0.0196133,0.028002121084338555,9.848712257831325
347,115.061,0.5185185185185185,0.021928831111175738,-0.022947699517397734,-0.7366225119792991,-0.6755546669669436,-0.0003904122663661596,-0.04429889635741707,0.0024799827095121274,-0.0223199354000001,0.026713314600001106,9.8431699646
348,115.19,0.5029940119760479,0.01990409072979289,-0.021083806194393668,-0.7367493722045498,-0.6755404997743891,0.0008013055957853176,-0.042596204012632456,0.0028343472965061535,-0.027380166799999738,0.02165308320000147,9.838109733200001
349,115.244,0.5180722891566265,0.019059907889032977,-0.020306747826896315,-0.7368015790688729,-0.6755350531803054,0.0012832973069245226,-0.04185594233965129,0.002978369491987879,-0.029342119444444623,0.019613300000001208,9.835992119444445
350,115.358,0.45,0.01746342775191552,-0.018840620952296886,-0.7368625353923187,-0.6755501132766962,0.0013750283812571863,-0.038783353413381225,0.003045490170488997,-0.024905777777777707,0.019613300000001204,9.831555777777778
351,115.475,0.39285714285714285,0.015824934979610954,-0.01733591179152397,-0.7369250958295395,-0.675565569691413,0.001469173431230172,-0.03562990688378864,0.0031143771826348736,-0.020352690277778,0.0196133000000012,9.827002690277778
352,115.561,0.33211678832116787,0.014778798516837251,-0.01632539351197978,-0.7369666971595421,-0.6755678527188362,0.0001191012030879251,-0.03407412148531397,0.0017456878389741392,-0.022262677217742173,0.022262677217743373,9.8262633
353,115.659,0.47126436781609193,0.013637820440535428,-0.015204736012822686,-0.7370126868668652,-0.675567520705599,-0.0018779936114199083,-0.03254753417305403,-0.0002726384310893595,-0.026137885685483996,0.026137885685485196,9.8262633
354,115.76,0.4527027027027027,0.012482165156762539,-0.014090004938459424,-0.7370588224724388,-0.6755657950342465,-0.003318271067924788,-0.03097737841308116,-0.0019248747266828953,-0.02941995,0.028713871200001174,9.8255572212
355,115.862,0.6240601503759399,0.011409370472736246,-0.013151589160981499,-0.7370995382610542,-0.6755576096675961,-0.0018951467797161496,-0.029406409710645825,-0.001600953983142999,-0.02941995,0.02471275800000158,9.821556108000001
356,115.955,0.6259541984732825,0.010431234143182725,-0.012295974775633859,-0.7371366614800858,-0.6755501465391797,-0.0005975922816433871,-0.02797405589371929,-0.0013056144816801112,-0.02941995,0.02106468420000144,9.8179080342
357,116.057,0.5703125,0.00945633437043492,-0.011542505854971066,-0.7371662104580965,-0.6755456044522883,0.0002676563221029815,-0.025515547096729346,-0.0009762643883004828,-0.02941995,0.02471275800000102,9.811357192
358,116.155,0.5775862068965517,0.008573205470871297,-0.010919733649569932,-0.7371884934346689,-0.6755432330252759,0.0007938669365830542,-0.022668047636747457,-0.0006568606300279579,-0.02941995,0.032401171600000944,9.8036687784
359,116.251,0.5775862068965517,0.007737245205006865,-0.010315291236826708,-0.737209525869213,-0.6755410428829957,0.001143776633557799,-0.019902650411593233,-0.00033103751641998166,-0.029771582868525923,0.03887496713147528,9.797546615737051
360,116.389,0.5267857142857143,0.0069405546524114806,-0.00952450201699348,-0.7372287018647294,-0.6755397411466145,-0.000653849098371279,-0.01626075295531069,0.000317114713301209,-0.03516328685258952,0.03348326314741168,9.808330023705178
361,116.457,0.5833333333333334,0.006547982496060119,-0.00913483776374231,-0.7372381509059984,-0.6755390997112963,-0.0015396356909160715,-0.014466194788446773,0.0006364940728739803,-0.03782006852589631,0.030826481474104894,9.813643587051791
362,116.555,0.5894736842105263,0.006086463957498949,-0.00860905507545615,-0.7372430921712188,-0.6755449356499067,-0.0022486636085982193,-0.012981548714619722,0.0006337992638446533,-0.036784783534136174,0.026978133534137375,9.814014833534136
363,116.648,0.6210526315789474,0.005705934626759884,-0.008129820302961829,-0.7372430004186298,-0.6755541989329279,-0.002608786720453358,-0.012179669912859658,0.0003761322647576408,-0.033122058835341556,0.023315408835342753,9.81035210883534
364,116.755,0.6526315789473685,0.005273985036522089,-0.007608846142241777,-0.7372422657485604,-0.6755649982431666,-0.0026703978357838693,-0.011255331888794977,8.029417856598994e-05,-0.02941995,0.0196133000000012,9.80665
365,116.854,0.6422018348623854,0.004913559953427606,-0.007330227196901244,-0.7372373771979105,-0.675575937149348,-0.00036762518063199754,-0.010388420343399093,-0.00018929404811932087,-0.02941995,0.0196133000000012,9.80665
366,116.955,0.6238532110091743,0.004545853555523149,-0.00704597958599829,-0.7372323898886615,-0.675587097043533,0.0019816681342198017,-0.009503995433449798,-0.00046432850160634225,-0.02941995,0.0196133000000012,9.80665
367,117.056,0.7070707070707071,0.004265644127097566,-0.0068457904085719385,-0.7372326214014568,-0.6755907881368813,0.0022889420222491634,-0.008372248917818159,-0.000384506657719631,-0.031930452399999726,0.022123802400000923,9.80665
368,117.155,0.6565656565656566,0.004040565918665734,-0.006697199352515546,-0.7372358057161565,-0.6755901737417684,0.0014329658765346097,-0.00712276176363234,-0.00010517654940486796,-0.03581388579999987,0.026007235800001072,9.80665
369,117.264,0.6989247311827957,0.0038080241167931963,-0.006532676176772401,-0.7372372659781747,-0.6755916015827028,0.0005559268332387493,-0.0057999315964748985,5.641898680184548e-05,-0.0392266,0.0294199500000012,9.805790452988047
370,117.357,0.7790697674418605,0.0036611441418535106,-0.006389189195819691,-0.7372316095696191,-0.6755999198574235,2.8288873344797967e-05,-0.0048496575907347765,-0.00029814933483262164,-0.0392266,0.0294199500000012,9.802156913346613
371,117.435,0.7804878048780488,0.0035379544854524836,-0.006268845276310967,-0.7372268654850239,-0.6756068964749311,-0.0004142461897920645,-0.004052653585920481,-0.0005955292174937875,-0.0392266,0.029419950000001197,9.799109428486055
372,117.563,0.7,0.0033861828548871612,-0.00609759833493352,-0.7372182004807203,-0.6756187172600927,-0.00020364126903872235,-0.002830969362679176,-0.0011675480966070648,-0.036491677689242795,0.02668502768924399,9.79684335
373,117.66,0.8194444444444444,0.003302805721197585,-0.0059843017291998785,-0.73721108157914,-0.6756279087638353,0.0005441864041529801,-0.0019592993440054707,-0.001653781726555631,-0.03270185677290843,0.022895206772909626,9.79684335
374,117.755,0.7777777777777778,0.003226687506853955,-0.005881865804494262,-0.7372038613196669,-0.6756370758077274,0.0010890811588241537,-0.0012514463001226152,-0.0020198639286831827,-0.029853175502007872,0.019613300000001197,9.797276575502007
375,117.858,0.803030303030303,0.0031900257272616966,-0.005841383057609283,-0.7371939785868433,-0.6756483813795597,0.00012735525954014957,-0.0016914924483252857,-0.0015049941209425081,-0.03390974156626532,0.019613300000001197,9.801333141566264
376,117.964,0.803030303030303,0.003152296128846368,-0.005799721201591738,-0.7371838080074327,-0.675660016239892,-0.0008623820737034492,-0.002144355474630885,-0.0009751281052094588,-0.038084460040160764,0.0196133000000012,9.80550786004016
377,118.059,0.8059701492537313,0.003104930069524952,-0.005780977957921238,-0.7371763255066014,-0.675668558316865,-8.827606961127137e-05,-0.0021785941757261717,-0.0007936742743477208,-0.036637644399999905,0.0222022556000013,9.80665
378,118.163,0.7741935483870968,0.0030465580041820913,-0.005769403721146696,-0.7371689194714867,-0.6756770027304996,0.001558206547051695,-0.0020373152382671808,-0.0007361741131171572,-0.032558077999999935,0.026281822000001266,9.80665
379,118.251,0.7419354838709677,0.0030031266821639504,-0.005757423024666432,-0.7371628109791822,-0.6756839668472059,0.002712090954228922,-0.001855732931521637,-0.0006551659880279753,-0.02941995,0.02910738745020003,9.80665
380,118.355,0.8115942028985508,0.0030222401493566883,-0.005717416338168461,-0.7371574609303707,-0.6756900562280431,0.0012477620809052316,-0.000907952318420623,-0.00017706197417482724,-0.02941995,0.02504407430278978,9.80665
381,118.448,0.8064516129032258,0.0030393319998271153,-0.005681641128127009,-0.7371526767521065,-0.6756955015397534,-6.16858538936972e-05,-6.041773170538411e-05,0.0002504733459053459,-0.02941995,0.021410534661356,9.80665
382,118.555,0.8709677419354839,0.0030671396789081072,-0.005716636845748715,-0.7371438794592503,-0.6757046719724484,-0.000604022791268791,0.0005445585405663744,6.691260164201792e-05,-0.02941995,0.0196133000000012,9.804247567670682
383,118.635,0.7536231884057971,0.0030925215090916733,-0.005785739774015595,-0.7371354454591025,-0.6757131664678049,-0.00046586280784018477,0.0007881855785689864,-0.00045115930303173455,-0.02941995,0.019613300000001197,9.801096836746988
384,118.755,0.8695652173913043,0.0031209095547412337,-0.005875820894745714,-0.737123284360501,-0.6757255340688313,-0.0003284458197226905,0.0009533942043108033,-0.0012198957637042168,-0.02941995,0.019613300000001197,9.797315959638555
385,118.835,0.7948717948717948,0.003081726720752892,-0.005854435345211289,-0.7371181163711549,-0.675731534284132,-0.0006557724164634091,-0.0001378582994337016,-0.0016821583594573038,-0.02941995,0.019613300000001197,9.800466690562248
386,118.955,0.7571428571428571,0.0030229524697703773,-0.005822357020909652,-0.7371103643871357,-0.675740534607083,-0.0011467623115745161,-0.001774737055050556,-0.002375552253086975,-0.02941995,0.0196133000000012,9.80519278694779
387,119.035,0.7857142857142857,0.003002519721979976,-0.00582218335664797,-0.737114207895173,-0.6757364358095355,-0.0004970919662156672,-0.0018920475537889416,-0.0021441594457720283,-0.031106693799999693,0.0196133000000012,9.80665
388,119.155,0.8157894736842105,0.0029960712929452136,-0.005849300991247021,-0.7371316042759444,-0.6757172528408169,0.0017384212329051773,-0.0008109486210160256,-0.0009017708192114128,-0.03581388579999987,0.0196133000000012,9.80665
389,119.242,0.7763157894736842,0.0029913961818950102,-0.0058689612763313335,-0.7371442166520037,-0.6757033451884958,0.00335916830226779,-2.7151894755661488e-05,-1.0390649549663033e-06,-0.0392266,0.0196133000000012,9.80665
390,119.355,0.6933333333333334,0.0030686442879156524,-0.005866479929732891,-0.737140897066339,-0.6757066363341668,0.002910149719684826,0.0007813615076043783,-0.0013147394884326213,-0.0392266,0.0196133000000012,9.802235053984063
391,119.435,0.7333333333333333,0.0031233332125320348,-0.005864723224176472,-0.7371385469171958,-0.6757089663488012,0.0025922604576791935,0.00135376037653183,-0.0022447928855849272,-0.0392266,0.019613300000001197,9.799109428486055
392,119.555,0.7402597402597403,0.003173015150669478,-0.005865514073790474,-0.737141697263245,-0.6757052947836448,0.0017560399519278443,0.0012386513086966155,-0.002044119214638901,-0.036794550799999534,0.02204534920000166,9.7992753992
393,119.641,0.782051282051282,0.0031869311543789754,-0.005868377681181552,-0.7371484305142014,-0.6756978587995175,0.0009158049840479079,0.0005033537391572304,-0.0008304617144165964,-0.033421063199999594,0.025418836800001607,9.8026488868
394,119.755,0.7402597402597403,0.0032021218170413444,-0.0058711074611063115,-0.7371576442716489,-0.6756877118144092,-0.00019696230720729076,-0.00044594692299142766,0.0005419206637889122,-0.02941995,0.028949230800001183,9.80665
395,119.835,0.7402597402597403,0.003193359383754146,-0.005866663516892309,-0.7371658296625728,-0.6756788614005865,-0.0009716925648972271,-0.0009606372215785004,9.477488882840383e-05,-0.02941995,0.025811102800001248,9.80665
396,119.955,0.759493670886076,0.0031802157338233477,-0.005859997600571304,-0.7371781077489588,-0.6756655857798526,-0.0021337879514322002,-0.0017326726694591556,-0.0005759437736123983,-0.02941995,0.02110391080000107,9.80665
397,120.036,0.7580645161290323,0.0031756421450627875,-0.005853437344328847,-0.7371859976712886,-0.6756570558665905,-0.0016545805791391669,-0.00190960010048001,-0.0007123514122795199,-0.02941995,0.0196133000000012,9.80665
398,120.155,0.8064516129032258,0.0031745035282965597,-0.005841123936278714,-0.7371970725907137,-0.6756450840052682,0.0006900079119951741,-0.0017226581275463007,-0.0005020629023201654,-0.02941995,0.0196133000000012,9.80665
399,120.245,0.75,0.003173284330089036,-0.005829077702311609,-0.7372053413031224,-0.6756361711590102,0.0023802865669500252,-0.0015897567929381172,-0.0003420018648498462,-0.02941995,0.019691440637451773,9.80665
400,120.355,0.7746478873239436,0.0031525385559739998,-0.005667349077505104,-0.7372096783846132,-0.6756328873778444,-1.4120999508615908e-05,-0.0018835375827562944,-9.155562922052676e-05,-0.02941995,0.023989175697212622,9.80665
401,120.45,0.8135593220338984,0.003134621751056468,-0.005527674356081305,-0.7372134240459006,-0.6756300513850195,-0.0020820184432683376,-0.002137257355781082,0.00012473884700479312,-0.02941995,0.02770085597609697,9.80665
402,120.555,0.7457627118644068,0.0030995925830630735,-0.005440589553267031,-0.7372228168015388,-0.6756206826096599,-0.0020011936264844278,-0.0020415123718524864,0.00029383404704043663,-0.02941995,0.027017517670683607,9.80665
403,120.643,0.7818181818181819,0.0030610300333160398,-0.005408284388439702,-0.7372338642970745,-0.675609061902535,-0.0005029029672007261,-0.0017338624966506486,0.0003932548684991911,-0.02941995,0.023551713654619527,9.80665
404,120.755,0.8076923076923077,0.0030065972335624994,-0.0053843387266330305,-0.7372481912910742,-0.6755938632624339,0.0014300076546058457,-0.001325259968430634,0.00047813346507435863,-0.030357637649402407,0.021019831474104814,9.80665
405,120.845,0.8076923076923077,0.0029270093298458984,-0.005480074372406832,-0.7372614889545744,-0.6755789135792163,0.003157314653805238,-0.0008827569886144023,0.00026738639286462803,-0.03739029501992047,0.0315688175298819,9.80665
406,120.955,0.6610169491525424,0.0028297352253033904,-0.0055970846061303625,-0.737277741654408,-0.6755606417441725,0.005268467652826626,-0.0003419200132834758,9.806637941635072e-06,-0.04598576513944217,0.04446202270916446,9.80665
407,121.048,0.76,0.002758420630411096,-0.005615171568242523,-0.7372791622808182,-0.6755592429139732,0.004608144775764671,-0.0006819000076835477,-0.0006475354769333983,-0.044830399999999763,0.04062755000000073,9.80665
408,121.155,0.78,0.0026854495961305598,-0.005568807904729363,-0.7372705592936876,-0.6755693075833655,0.0018165889293109486,-0.0017355157033307907,-0.0017690904221834241,-0.03650253055555522,0.023971811111111636,9.80665
409,121.235,0.78,0.0026308918134909072,-0.005534143483411112,-0.7372641271537768,-0.675576832569827,-0.0002705556287852613,-0.0025232657561511476,-0.0026076361756413747,-0.03027608611111079,0.011518922222222783,9.80665
410,121.355,0.8409090909090909,0.00258497494496717,-0.00543886929951899,-0.7372614535905541,-0.6755806934130151,-0.0006456977838928295,-0.002221891572492382,-0.0019342985418211592,-0.02941995,0.014116830846775664,9.80665
411,121.435,0.7560975609756098,0.002556780322280356,-0.005372441537345884,-0.7372601404573541,-0.6755827676570881,-0.0007104022083841594,-0.0019212017993390006,-0.0013554818996776292,-0.02941995,0.017280266330646506,9.80665
412,121.555,0.7317073170731707,0.0024982207009380743,-0.005298663839734631,-0.7372605855034472,-0.675583085774388,-0.0002321017207577217,-0.001713050811085852,-0.0013748331503011801,-0.031812772600000275,0.0196133000000012,9.80665
413,121.675,0.6904761904761905,0.0024239267590808623,-0.0052499020895538095,-0.7372633661234366,-0.6755807022248063,0.0008026917232200278,-0.001739820095244795,-0.002252659755293261,-0.0365199645999999,0.0196133000000012,9.80665
414,121.746,0.7142857142857143,0.002379104606338624,-0.005220383473649115,-0.7372649069628296,-0.6755794132425886,0.001396686635911467,-0.0017719743028282733,-0.0027486435752362218,-0.039148146800000186,0.019534846800001383,9.806806906399999
415,121.875,0.75,0.002243452323093625,-0.005124884157627503,-0.7372611648598234,-0.6755846737846593,0.0013314566509798169,-0.0028531148657202745,-0.0021832057489082207,-0.03408791539999999,0.014474615400001193,9.8169273692
416,121.962,0.8333333333333334,0.0021519658995097887,-0.005060477642171066,-0.7372586411159355,-0.6755882215921023,0.001287464335560797,-0.0035822561755776703,-0.0018018639590591033,-0.030675201199999863,0.011061901200001065,9.823752797600001
417,122.035,0.875,0.002092829034111202,-0.004995863974265534,-0.7372550581593886,-0.6755927979427571,0.0014147863053601557,-0.0035054663041295202,-0.0016350016522915143,-0.02941995,0.011408533067730132,9.823059533864543
418,122.155,0.6956521739130435,0.0020182338537917755,-0.004876086661795358,-0.7372472883556827,-0.6756023728012529,0.0018347952360903185,-0.002495769391381808,-0.0015571519159210995,-0.02941995,0.01609697131474217,9.813682657370517
419,122.275,0.65,0.0019346434489212366,-0.0047600257721129545,-0.7372439255887155,-0.6756071216351208,0.0019333296629364467,-0.00231382839454633,-0.0013000749757075677,-0.03060147409638561,0.02079482409638681,9.80665
420,122.355,0.7,0.0018609260632386573,-0.004690084691233571,-0.7372504978175487,-0.6756006354751102,0.0013560702730658312,-0.0038480462284803865,-0.0007702359412123444,-0.03375220502008038,0.023945555020081583,9.80665
421,122.458,0.72,0.0017660149291723398,-0.004600035549601367,-0.7372589595621714,-0.6755922845440965,0.000612848808607438,-0.00582335168967042,-8.806818429976638e-05,-0.037808771084337264,0.028002121084338468,9.80665
422,122.555,0.6,0.0012329254142691892,-0.004107124506561119,-0.7372648011313574,-0.6755892171732645,0.000570889077615018,-0.012751426277682906,0.00023410562647042057,-0.036833777399999726,0.027027127400000923,9.80665
423,122.675,0.5333333333333333,0.00024948274276907767,-0.003199378493490102,-0.7372704747042316,-0.6755889248477025,0.0009993618535809126,-0.025022265417501063,0.0003988523384323338,-0.0321265854000001,0.022319935400001302,9.80665
424,122.755,0.7142857142857143,-0.00046516431238006605,-0.002540509399292474,-0.7372734786767764,-0.6755888219367618,0.0011842183654662464,-0.032490337550639944,0.0004486048344988592,-0.02985144259999983,0.0196133000000012,9.8070814926
425,122.875,1.0,-0.0020924463382336316,-0.0010468897264002029,-0.7372706605110554,-0.6755895329504794,0.00051314199133776,-0.03698858803510667,-4.2051856173198725e-05,-0.03455863460000001,0.0196133000000012,9.8117886846
426,122.981,0.75,-0.0035298787944041525,0.00027247431798785174,-0.7372681711313351,-0.6755901610125966,-7.964213914234998e-05,-0.04096204262971859,-0.00047546526626681123,-0.0387166541999998,0.0196133000000012,9.815946704199998
427,123.044,0.4,-0.004507732645884235,0.0011486635814631169,-0.7372588264847467,-0.6755909797919827,-0.0002744246390648117,-0.042587782442569666,-0.00042854541679844305,-0.037265270000000114,0.0196133000000012,9.81645665
428,123.195,0.8,-0.006928458841228878,0.0033060925875103876,-0.7372315276619347,-0.6755932198857406,-0.0006431139684282082,-0.04602583906054482,-0.00012632095743902788,-0.03134205340000026,0.0196133000000012,9.81645665
429,123.248,0.5,-0.007783341778541435,0.004070734866863684,-0.7372217298056565,-0.6755933802751323,-0.0007575480056373689,-0.047176047298775295,-1.3495187147077675e-05,-0.02941995,0.0196133000000012,9.816300368725098
430,123.355,0.4166666666666667,-0.009638434785103721,0.005797431934417118,-0.7371966035873059,-0.6755782256390872,-0.0006182642065246462,-0.04810019242632913,0.0003811457568679542,-0.02941995,0.0196133000000012,9.812119844621513
431,123.444,0.5,-0.01118145607093589,0.007233656598083046,-0.7371757042094255,-0.6755656203810684,-0.0005024113268888312,-0.0488688738875655,0.0007093985046935385,-0.02941995,0.0196133000000012,9.80864258625498
432,123.555,0.4,-0.013159927578134552,0.009070189381828015,-0.7371281554664095,-0.6755587181147722,-0.0003673640743363623,-0.04983528628945352,0.00010557158617300396,-0.02941995,0.0196133000000012,9.80665
433,123.679,0.8,-0.01542141539495859,0.011164813169915057,-0.7370546385633742,-0.6755593814557582,-0.00022546746977605213,-0.050922212451696376,-0.001531077149789741,-0.02941995,0.0196133000000012,9.80665
434,123.786,0.8333333333333334,-0.017399442273933554,0.0129989770986418,-0.7369910045237066,-0.6755492732668568,9.853667992377677e-05,-0.05207790851414914,-0.0019399122423371903,-0.02941995,0.0196133000000012,9.808251883067728
435,123.854,0.8,-0.018683699811622406,0.014191935140752109,-0.7369503636185819,-0.6755319228885792,0.0005106474252035432,-0.053035167480013745,-0.001173196658812122,-0.02941995,0.0196133000000012,9.810908664741035
436,123.955,0.6,-0.020591199977895602,0.015963828703298343,-0.7368899999212645,-0.6755061524737845,0.0011227530909867396,-0.05445697859107738,-3.4398512693980306e-05,-0.02941995,0.0196133000000012,9.814854766932271
437,124.075,0.8333333333333334,-0.02297685740276753,0.018126907325635704,-0.7367795117108457,-0.6754919256240621,0.0009065213593107979,-0.05585690599727827,-1.995585672746365e-05,-0.02941995,0.01650195321285242,9.81645665
438,124.16,0.7142857142857143,-0.024710562242103478,0.019680357746401582,-0.7366869971349223,-0.6754878740374838,0.00040651663920908486,-0.05674215039634795,-0.000501810893417306,-0.02941995,0.013154301606427091,9.81645665
439,124.275,0.6666666666666666,-0.027087745786151276,0.021818499887750302,-0.7365487221147528,-0.6754855507358757,-9.571293385971987e-05,-0.05758835057296404,-0.0016459376187768237,-0.02941995,0.009806650000001202,9.81765258292683
440,124.371,0.5,-0.029146877641227975,0.023689513393614303,-0.7364022886931655,-0.6754910812477802,-0.00010283246335414437,-0.05746340906111207,-0.0037652070225192135,-0.02941995,0.009806650000001204,9.821479568292682
441,124.471,1.0,-0.031291806656933284,0.02563848579555635,-0.7362497538790121,-0.6754968421976807,-0.00011024863991083801,-0.0573332616529329,-0.005972779318084634,-0.02941995,0.009806650000001204,9.825466011382115
442,124.589,1.0,-0.03374434000756414,0.027979897861515435,-0.7360506909373219,-0.6754962611314592,0.00010550570239744962,-0.058405783408739406,-0.004817573232649624,-0.018068945669291674,0.006022981889765096,9.830046968110237
443,124.675,0.8,-0.035520106222708334,0.029692541865179587,-0.7359027744660778,-0.6754947401107108,0.00029614276030854865,-0.059369818168127565,-0.0034163694894748854,-0.008107860236221173,0.002702620078741595,9.833367329921261
444,124.771,0.8,-0.03758763073885204,0.03166025019888438,-0.7357202919964957,-0.6754955567089045,0.00036558239022271084,-0.060203594326972955,-0.002257787637412543,-0.0020397831999997055,0.0010198916000010575,9.837089841600001
445,124.846,0.8571428571428571,-0.03938224634691082,0.03331514185056538,-0.7355411996643076,-0.675501483550263,0.00011828411603346769,-0.060345219433307645,-0.0022056707795709302,-0.007923773199999928,0.00396188660000117,9.8400318366
446,124.995,0.8,-0.04294754935492083,0.03660285993190486,-0.7351854028976941,-0.6755132582084287,-0.00037301512202247977,-0.06062658131122589,-0.002102131955325596,-0.0196133,0.009806650000001206,9.8458766
447,125.075,0.8,-0.04427819720445588,0.03781382461878917,-0.735016793950578,-0.67553908135067,-0.00028915075902913984,-0.05149916882215743,-0.001620401696185114,-0.0196133,0.009806650000001207,9.85222908582996
448,125.138,0.6,-0.04532608238596479,0.038767459309710615,-0.734884014404724,-0.6755594170751851,-0.0002231075731718807,-0.04431133148701559,-0.0012410391171119616,-0.0196133,0.009806650000001207,9.857231668421052
449,125.246,0.4,-0.047087390303461034,0.04036964614505702,-0.7346564638597547,-0.6755981296512353,-0.00013067641164407024,-0.03221657361805961,-0.00067379039998233,-0.0196133,0.00980665000000121,9.865644335433071
450,125.357,0.8,-0.04796056384200635,0.04114477974656942,-0.7344245040040754,-0.6757408337802735,-0.0005911185742332012,-0.025858448297665395,-0.002311057598132066,-0.0196133,0.00980665000000121,9.869929918700787
451,125.455,0.625,-0.048731473812974255,0.04182913193529205,-0.7342197106179803,-0.6758668248131179,-0.0009976350781407026,-0.02024496828506537,-0.0037565727820840157,-0.0196133,0.00980665000000121,9.873713586811023
452,125.555,0.7391304347826086,-0.04905399737225672,0.04211544254485966,-0.734134031752369,-0.6759195353472671,-0.001167708309367299,-0.017896471545100212,-0.004361329134553668,-0.0196133,0.00980665000000121,9.87529655
453,125.675,0.7777777777777778,-0.04905399737225672,0.04211544254485966,-0.734134031752369,-0.6759195353472671,-0.001167708309367299,-0.017896471545100212,-0.004361329134553668,-0.0196133,0.00980665000000121,9.87529655
