,time,img_sim,orientation.x,orientation.y,orientation.z,orientation.w,angular_velocity.x,angular_velocity.y,angular_velocity.z,linear_acceleration.x,linear_acceleration.y,linear_acceleration.z
0,121.619,0.988,-0.00016017452781175192,0.0005816473469677171,-0.7075296661898635,-0.7066833855538251,0.00033440604293718927,-0.00033242696034722067,-0.00031501864478923223,0.0,-0.0098066499999988,9.80665
1,121.652,0.992,-0.00015891114844452913,0.0005830972529731047,-0.7075284285962251,-0.7066846237402046,0.00033482037473004305,-0.0003309635048499334,-0.0003219667113153251,0.0,-0.0098066499999988,9.80665
2,121.748,0.982,-0.0001607704418024192,0.0005832473799197886,-0.7075244975196049,-0.7066885589216197,0.00033723744447343044,-0.0003305751469451934,-0.0003176266746595505,0.0,-0.0098066499999988,9.80665
3,121.846,0.968,-0.00016536302979171531,0.0005814201986149903,-0.7075203234905528,-0.7066927382999303,0.00034029481676407146,-0.00033206233964301645,-0.00030124256992712666,0.0,-0.0098066499999988,9.80665
4,121.948,0.996,-0.00016939836053871948,0.0005802996608205914,-0.7075160486726342,-0.7066970181152412,0.0003446672424586824,-0.0003328680387091461,-0.00028869295453344594,0.0,-0.0098066499999988,9.80665
5,122.047,0.992,-0.00016912272690308995,0.0005836099022471058,-0.7075122912772446,-0.7067007771511308,0.0003556115462340824,-0.00032947191737121016,-0.0003018629718878005,0.0,-0.0098066499999988,9.80665
6,122.148,0.99,-0.00016884152491118508,0.0005869870172377921,-0.7075084579748774,-0.7067046121271393,0.0003667769470554495,-0.00032600718752139697,-0.0003152990501988081,0.0,-0.0098066499999988,9.80665
7,122.257,0.996,-0.00016659865734306315,0.0005917653493339555,-0.7075037669231118,-0.7067093049854872,0.0003679078629840702,-0.0003084289268861668,-0.00031799148596602523,0.0,-0.0098066499999988,9.80665
8,122.359,0.98,-0.00016360483556461297,0.0005967600070050346,-0.7074991214153136,-0.7067139521840219,0.0003639273047419156,-0.0002855930726808783,-0.0003150619042104105,0.0,-0.0098066499999988,9.80665
9,122.442,0.994,-0.00016113491857716754,0.0006008709598201721,-0.7074953518427104,-0.706717723064334,0.00035991707415064126,-0.00027270140731613907,-0.000312326354924516,0.0,-0.0098066499999988,9.80665
10,122.551,0.978,-0.0001575266717346423,0.0006067736445955248,-0.7074905158489181,-0.7067225600402923,0.0003463238705203784,-0.00031721607452180533,-0.00030493656132997296,0.0,-0.0098066499999988,9.80665
11,122.649,0.994,-0.0001542825598945741,0.0006120806455862083,-0.7074861678911967,-0.7067269088810622,0.00033410245808216147,-0.0003572384358626759,-0.0002982925267220358,0.0,-0.0098066499999988,9.80665
12,122.749,0.984,-0.00015165238582925418,0.0006177191894953914,-0.7074819405426487,-0.7067311363905003,0.00034533855854533557,-0.00038719301810488053,-0.00029179180797655145,0.0,-0.0098066499999988,9.80665
13,122.856,0.98,-0.0001492299672408884,0.0006238810502052166,-0.7074775378934794,-0.7067355387853648,0.0003710200246423476,-0.00041297323885373705,-0.00028499673306942,0.0,-0.0098066499999988,9.80665
14,122.952,0.984,-0.00014799246341046788,0.0006285962536844234,-0.7074734935251621,-0.7067395835115354,0.0004142519868910322,-0.0004241035925224421,-0.00027639961685053987,0.0,-0.0098066499999988,9.80665
15,123.049,0.982,-0.00015083979818909834,0.000629800022521468,-0.7074689940157372,-0.7067440859483898,0.000546338468557236,-0.00038281012966762844,-0.00025676413788460004,0.0,-0.0098066499999988,9.80665
16,123.15,0.99,-0.00015380454883488854,0.0006310534313105555,-0.7074643089595318,-0.7067487740527432,0.0006838718154467754,-0.00033981384360231117,-0.00023631894844584,0.0,-0.0098066499999988,9.80665
17,123.255,0.964,-0.00015356835360147902,0.0006341874244535961,-0.7074590060251205,-0.7067540795245639,0.0006265524767804921,-0.0003292676226701587,-0.0002449012363795186,0.0,-0.02094700439999848,9.7899394684
18,123.353,0.984,-0.00015186476838713537,0.0006379308223122739,-0.7074538633898496,-0.7067592242458546,0.0004835308722686067,-0.0003346890604589133,-0.00026624705386348,0.0,-0.03632383159999832,9.7668742276
19,123.448,0.984,-0.0001505876407135829,0.0006414929184749215,-0.7074488967657974,-0.7067641928210279,0.0003644304388510667,-0.0003412761314745776,-0.00028896875254201326,0.0,-0.046818845161289833,9.751131707258065
20,123.558,0.99,-0.00015161643658742206,0.0006451705582070797,-0.7074432704341509,-0.7067698209359466,0.0003574478032533075,-0.00035782395571004713,-0.00032887303677853446,0.0,-0.02941994999999768,9.777230050000002
21,123.668,0.982,-0.00015264523246126112,0.0006488481979392374,-0.7074376441025045,-0.7067754490508653,0.00035046516765554917,-0.0003743717799455145,-0.00036877732101505057,0.0,-0.012021054838707773,9.803328392741935
22,123.757,0.992,-0.00015330923486863996,0.0006497083589571152,-0.7074334066669712,-0.7067796894702197,0.00034525966321849124,-0.00038289722666029366,-0.000341874405378067,0.0,-0.0098066499999988,9.80665
23,123.861,0.982,-0.00015404841798962227,0.0006502520678776607,-0.7074285237186532,-0.7067845762413825,0.0003392736931179328,-0.0003917987391851708,-0.00029752652747074265,0.0,-0.0098066499999988,9.80665
24,123.948,0.992,-0.0001549475928299513,0.0006506537901406297,-0.707424319013472,-0.7067887842102835,0.0003385171293052797,-0.00039623750026330536,-0.00027174233719594787,0.0,-0.0098066499999988,9.80665
25,124.047,0.984,-0.00015750464851563674,0.0006508208255469638,-0.707418879276976,-0.7067942280198708,0.0003608750869089584,-0.0003848602584576189,-0.00030420236966657854,0.0,-0.0098066499999988,9.80665
26,124.15,0.994,-0.00016016501958256212,0.0006509946098586043,-0.7074132197531469,-0.7067998917813606,0.00038413639633500907,-0.00037302333011432845,-0.00033797391860067056,0.0,-0.0098066499999988,9.80665
27,124.252,0.99,-0.00016129703201418842,0.0006508006163347313,-0.707408023336488,-0.7068050925832567,0.000401851854938826,-0.00035687379670389324,-0.00033329886241243833,0.0,-0.0098066499999988,9.80665
28,124.349,0.992,-0.00016165911545588772,0.0006504420598017778,-0.7074032757223747,-0.7068098444573787,0.0004161692947480289,-0.000339410661548623,-0.000310727895142129,0.0,-0.0098066499999988,9.80665
29,124.452,0.988,-0.00016290000275987076,0.0006493518620573928,-0.7073981924432985,-0.7068149327035179,0.0004240985318788335,-0.0003239620627466205,-0.00029302669275807974,0.0,-0.0098066499999988,9.80665
30,124.556,0.984,-0.00016797591712552472,0.0006450840568628843,-0.7073928723334632,-0.7068202598086303,0.00039963460892839735,-0.0003221782776146787,-0.0003031244900576631,0.0,-0.0098066499999988,9.80665
31,124.664,0.968,-0.00017324705896678102,0.0006406521053147408,-0.7073873476040189,-0.7068257918024008,0.00037422976586448165,-0.0003203258853622775,-0.0003136106641764618,0.0,-0.0098066499999988,9.80665
32,124.763,0.996,-0.00017638291086303465,0.0006402230702544123,-0.7073830057568798,-0.7068301366748007,0.0003700161186279729,-0.00034330301801674303,-0.0003311792075401187,0.0,-0.0098066499999988,9.80665
33,124.85,0.99,-0.0001787613306489478,0.0006406544324516603,-0.7073793509319284,-0.7068337933498955,0.00037055678875185546,-0.0003689847222995004,-0.00034838831331580807,0.0,-0.0098066499999988,9.80665
34,124.948,0.99,-0.00018183539829937212,0.0006409047752858776,-0.7073751676517436,-0.7068379788476332,0.0003689448781676998,-0.00039442218095713476,-0.00035921299312471693,0.0,-0.0098066499999988,9.80665
35,125.049,0.984,-0.0001874456766085602,0.0006397061591962343,-0.7073704460194808,-0.7068427035907514,0.0003535500475979099,-0.00039904892158906097,-0.0003174350030425224,0.0,-0.0098066499999988,9.80665
36,125.152,0.982,-0.00019316704953773118,0.0006384838081345191,-0.7073656308895496,-0.7068475218931394,0.00033785036889802806,-0.00040376728084736107,-0.00027482972602801514,0.0,-0.0098066499999988,9.80665
37,125.252,0.986,-0.0001967392678863351,0.0006360912679918206,-0.7073614306528188,-0.7068517263532245,0.00033324747765436767,-0.0003777191278059065,-0.0002770615608897043,0.0,-0.0098066499999988,9.80665
38,125.35,0.984,-0.0001992831096422935,0.0006331645592732561,-0.7073575435264076,-0.7068556181703779,0.00033387219533324234,-0.00033740769024007356,-0.00030029205023310887,0.0,-0.0098066499999988,9.80665
39,125.468,0.996,-0.000202506685958657,0.0006302862948303409,-0.7073529663361661,-0.7068602002652011,0.00034276066638994995,-0.00031468214455526375,-0.00031329257099423525,0.0,-0.0098066499999988,9.80665
40,125.556,0.986,-0.0002052191738429325,0.0006293801812431927,-0.707349751128038,-0.7068634177028781,0.00036501833063084507,-0.0003473180279834178,-0.00029423024284187804,0.0,-0.0098066499999988,9.80665
41,125.655,0.99,-0.0002082707227127428,0.0006283608034576508,-0.7073461340188938,-0.7068670373202646,0.0003900582029018548,-0.00038403339684009517,-0.00027278512367047387,0.0,-0.0098066499999988,9.80665
42,125.751,0.988,-0.000212292517388971,0.0006274120924433458,-0.7073424162721444,-0.7068707571840929,0.00039689170103520153,-0.00038947177468799036,-0.0002973475072067242,0.0,-0.0098066499999988,9.80665
43,125.852,0.99,-0.00021703199273211132,0.0006264329913197087,-0.7073384043485081,-0.7068747711843589,0.0003957373292651027,-0.0003807681892067193,-0.0003448801034828655,0.0,-0.0098066499999988,9.80665
44,125.948,0.984,-0.0002219570192077754,0.0006249387945189621,-0.7073345809124523,-0.7068785969272607,0.00039535659016109965,-0.0003754306015325698,-0.000379172186017971,0.0,-0.0098066499999988,9.80665
45,126.068,0.964,-0.0002314666509422614,0.00061857335808817,-0.7073297208320412,-0.7068834625489828,0.0004005987721029667,-0.00039218319009523783,-0.00033514734322671,0.0,-0.0098066499999988,9.80665
46,126.164,0.98,-0.0002390743563298502,0.0006134810089435362,-0.7073258327677123,-0.7068873550463605,0.00040479251765646035,-0.0004055852609453722,-0.00029992746899370126,0.0,-0.0098066499999988,9.80665
47,126.268,0.994,-0.00024383500223536787,0.0006120430388136964,-0.7073224628641044,-0.7068907266523649,0.0004255045382412217,-0.0004104508819393177,-0.00032898423393848387,0.0,-0.0098066499999988,9.80665
48,126.354,0.988,-0.00024704338284103655,0.000611707308538,-0.707319852412296,-0.7068933378633223,0.00044601464585645523,-0.00041245470058523526,-0.00036707406127896313,0.0,-0.0098066499999988,9.80665
49,126.456,0.992,-0.00025087143947866456,0.0006111671315757587,-0.7073166831340945,-0.706896508188339,0.00046485582632677477,-0.00041151725703716984,-0.0004089368255848083,0.0,-0.0098066499999988,9.80665
50,126.548,0.988,-0.0002545654927331525,0.0006091751479986799,-0.707313049206927,-0.7069001446115561,0.00042372211880449615,-0.0003755491218596155,-0.0004115783435316021,0.0,-0.0098066499999988,9.80665
51,126.668,0.982,-0.0002593838230650936,0.0006065769085503162,-0.7073083093019258,-0.7069048877722741,0.00037006945681891256,-0.0003286341629323682,-0.00041502380172307247,0.0,-0.0098066499999988,9.80665
52,126.753,0.99,-0.0002631364194974445,0.0006042232176662261,-0.7073058300044489,-0.7069073690816674,0.0003744275143992751,-0.00032982244749926704,-0.0003764224551675416,0.0,-0.0098066499999988,9.80665
53,126.868,0.986,-0.00026833690295258476,0.0006008522501858365,-0.7073027948425299,-0.7069104068586499,0.00039572132098126167,-0.000343940891778199,-0.00030927933564979255,0.0,-0.0098066499999988,9.80665
54,126.954,0.992,-0.0002721353623726664,0.000598389241228022,-0.7073005488103038,-0.7069126547972452,0.0004092262705989737,-0.00035349141817204305,-0.0002775472086413075,0.0,-0.0098066499999988,9.80665
55,127.048,0.984,-0.0002758539304141114,0.0005959739364383418,-0.7072982073739252,-0.7069149980818483,0.0004124193456304836,-0.00035911197630360514,-0.0003312305963941307,0.0,-0.0098066499999988,9.80665
56,127.156,0.982,-0.0002801263277383246,0.0005931989054033901,-0.7072955172129796,-0.7069176903662859,0.0004160879850283885,-0.00036556963883774,-0.0003929093823229032,0.0,-0.0098066499999988,9.80665
57,127.268,0.988,-0.00028671848255076225,0.0005877801198480424,-0.7072917870779294,-0.7069214242756726,0.0004081095491225521,-0.00037075858563184744,-0.0004009429151968409,0.0,-0.0098066499999988,9.80665
58,127.36,0.984,-0.00029275383441994805,0.0005825997014548377,-0.7072884531564151,-0.7069247617487634,0.00039817406618257,-0.0003745881630197527,-0.00039148978955845477,0.0,-0.0098066499999988,9.80665
59,127.455,0.962,-0.00029824534526378977,0.0005784487613302889,-0.707285065762145,-0.7069281520644263,0.0003858475788891597,-0.0003775528233694989,-0.0003807307759010458,0.0,-0.0098066499999988,9.80665
60,127.549,0.996,-0.0003010966279633174,0.0005785200139938677,-0.7072819066381318,-0.706931311478004,0.0003664437265170583,-0.0003770351434493831,-0.0003666065480704761,0.0,-0.0098066499999988,9.80665
61,127.668,0.992,-0.0003047062305297404,0.0005786102168339301,-0.707277907321562,-0.7069353111611504,0.0003418792751098258,-0.0003763797826994493,-0.00034872587666794796,0.0,-0.0098066499999988,9.80665
62,127.757,0.982,-0.00030801132156516167,0.0005776016637082106,-0.707275458492162,-0.7069377605424656,0.00036896125669591247,-0.0003763401475735009,-0.00033136968268081485,0.0,-0.0098066499999988,9.80665
63,127.865,0.986,-0.0003121954718540597,0.0005760695048396184,-0.7072726422444696,-0.7069405775394785,0.0004148480400908707,-0.00037642112933099274,-0.0003091669641435161,0.0,-0.0098066499999988,9.80665
64,127.952,0.988,-0.0003153474396933245,0.0005751352466431945,-0.7072703406068335,-0.706942879633409,0.0004403556937554053,-0.00037545861573834227,-0.00030107070915437917,0.0,-0.0098066499999988,9.80665
65,128.068,0.992,-0.0003183499194016319,0.0005755365229657299,-0.7072670906149792,-0.7069461294248123,0.0004114663712838016,-0.00036853272131592206,-0.0003440207048074417,0.0,-0.0098066499999988,9.80665
66,128.151,0.992,-0.0003204982453998171,0.0005758236430930613,-0.7072647651897731,-0.7069484547065922,0.0003907955629636052,-0.0003635771244447083,-0.00037475216721437007,0.0,-0.0098066499999988,9.80665
67,128.268,0.99,-0.00032201572020974795,0.0005745155798480863,-0.7072621172782847,-0.7069511041680392,0.000380139618413523,-0.00035589569783769595,-0.00038713617273606357,0.0,-0.0098066499999988,9.80665
68,128.358,0.984,-0.00032268693824323325,0.0005729470137533084,-0.707260287303348,-0.7069529359105313,0.00037801107601262635,-0.0003497584473807367,-0.0003865050259046256,0.0,-0.0098066499999988,9.80665
69,128.456,0.992,-0.0003236103095362173,0.0005717796450968861,-0.7072582789242705,-0.7069549456872344,0.000378772469230899,-0.0003527081991128745,-0.00037620956254431936,0.0,-0.0098066499999988,9.80665
70,128.548,0.988,-0.0003251818949237841,0.000572663099441859,-0.7072563358805951,-0.7069568881133332,0.0003907606670732071,-0.00039074422890249234,-0.00033136660312152943,0.0,-0.0098066499999988,9.80665
71,128.647,0.998,-0.0003268730574604045,0.0005736137731391666,-0.70725424499664,-0.7069589783327223,0.0004036610104035137,-0.00043167430443696235,-0.0002831116793948435,0.0,-0.0098066499999988,9.80665
72,128.748,0.986,-0.0003308177313511798,0.0005720611422927735,-0.707252261617772,-0.7069609619282508,0.0004078114582216406,-0.0004235142927739329,-0.00027234405007832836,0.0,-0.0098066499999988,9.80665
73,128.862,0.964,-0.00033678109088663863,0.0005685913154226221,-0.7072501249006627,-0.7069630994989966,0.00040636166934372936,-0.00038031997197155934,-0.0002863759348174521,0.0,-0.0098066499999988,9.80665
74,128.984,0.984,-0.0003413796825560401,0.0005663528263021478,-0.7072479841358525,-0.7069652407531437,0.0003957396869082,-0.00035360827995464214,-0.0003017289026174696,0.0,-0.0098066499999988,9.80665
75,129.057,0.994,-0.000342486300184367,0.0005663738968964411,-0.7072468377727449,-0.706966387017735,0.00038101666455623147,-0.000355626010219566,-0.00031122582452371465,0.0,-0.0098066499999988,9.80665
76,129.163,0.988,-0.0003440931696172808,0.0005664044925539082,-0.707245173190698,-0.7069680514567303,0.0003596380293602116,-0.0003585558651247995,-0.00032501587551087187,0.0,-0.0098066499999988,9.80665
77,129.265,0.994,-0.00034361581196021626,0.0005677303341623522,-0.7072432377536361,-0.7069699868072358,0.0003911841379012818,-0.0003618752820184448,-0.0003363911054329924,0.0,-0.0098066499999988,9.80665
78,129.356,0.984,-0.00034266432286502466,0.0005692499223452966,-0.707241424372256,-0.7069718001246659,0.00043286544270812894,-0.0003649666253477331,-0.000346047529019414,0.0,-0.0098066499999988,9.80665
79,129.457,0.996,-0.0003414443555597561,0.0005713825291640232,-0.7072393498139532,-0.7069738743397375,0.0004591015904443405,-0.00037197816488332777,-0.00035426806658506404,0.0,-0.0098066499999988,9.80665
80,129.574,0.988,-0.0003393077496109316,0.0005758213148294489,-0.7072366734285357,-0.7069765491260915,0.00040112108387984073,-0.0003959011831320833,-0.00035277143586426963,0.0,-0.0098066499999988,9.80665
81,129.658,0.994,-0.0003377737761092122,0.0005790081353071888,-0.7072347519210564,-0.7069784694855252,0.0003594940535258601,-0.0004130766834132333,-0.00035169693175703305,0.0,-0.0098066499999988,9.80665
82,129.764,0.992,-0.000335473655323789,0.0005828831281078752,-0.7072320004860273,-0.7069812197994161,0.0003411396897863595,-0.0004021309621166432,-0.0003477933779358862,0.0,-0.0098066499999988,9.80665
83,129.868,0.982,-0.00033308859361065677,0.0005866334205186815,-0.7072291859093125,-0.7069840333915222,0.0003351681071799255,-0.00037990311137400833,-0.00034306619688868575,0.0,-0.0098066499999988,9.80665
84,129.956,0.988,-0.0003322719598454132,0.0005891486728633137,-0.7072270754569098,-0.7069861428852401,0.00032510990622468803,-0.00036389961320651,-0.00034012996676967896,0.0,-0.0098066499999988,9.80665
85,130.063,0.978,-0.0003362460985401885,0.0005894864615700603,-0.7072256301424095,-0.7069875865150134,0.0002921875864239586,-0.00035603562974282125,-0.0003409571785654173,0.0,-0.0098066499999988,9.80665
86,130.158,0.982,-0.0003397745394374189,0.0005897863674311904,-0.707224346919255,-0.7069888682423822,0.0002629574894046196,-0.00034905358834982664,-0.0003416916189448111,0.0,-0.0098066499999988,9.80665
87,130.259,0.976,-0.0003406580698082684,0.0005914382991936313,-0.707221774321167,-0.7069914398699472,0.0002807635306913585,-0.0003693543135396029,-0.0003403591473182915,0.0,-0.0098066499999988,9.80665
88,130.349,0.994,-0.0003404161040084122,0.0005933887761338832,-0.7072190482244974,-0.7069941653242232,0.0003141746719519211,-0.00039739442003205815,-0.0003384133107982669,0.0,-0.0098066499999988,9.80665
89,130.46,0.992,-0.00034013474426636844,0.0005953863862456905,-0.7072157155671244,-0.7069974974984183,0.00035794779513850425,-0.00042008078960051,-0.00034147065381115574,0.0,-0.0098066499999988,9.80665
90,130.552,0.99,-0.0003399528163024458,0.00059581629101235,-0.7072130420831862,-0.7070001715105991,0.000401937927238181,-0.00040314103388807494,-0.0003604008740208733,0.0,-0.0098066499999988,9.80665
91,130.652,0.99,-0.00033975506851557333,0.0005962835788021973,-0.7072101361223838,-0.7070030780455782,0.00044975328821609574,-0.0003847282559397739,-0.00038097720033578595,0.0,-0.0098066499999988,9.80665
92,130.753,0.976,-0.00033985790259163045,0.0005977078602038322,-0.7072071138716682,-0.7070060999057228,0.00045117325649459837,-0.00039768004333099003,-0.0003955471772325772,0.0,-0.0098066499999988,9.80665
93,130.866,0.96,-0.00034013723002643845,0.0005998184283906175,-0.7072036851797191,-0.7070095276337668,0.0004273118095034605,-0.0004293001089912985,-0.0004084753563657293,0.0,-0.0098066499999988,9.80665
94,130.96,0.97,-0.00034045928483608645,0.0006016316913574014,-0.7072009453631253,-0.7070122665092977,0.00041008683206934104,-0.0004425582629928902,-0.00040896176811187435,0.0,-0.0098066499999988,9.80665
95,131.068,0.984,-0.0003411298753559229,0.0006039079324173346,-0.707198174046541,-0.7070150362780911,0.00039909085664417373,-0.0004140755251770993,-0.00037511189152756685,0.0,-0.0098066499999988,9.80665
96,131.154,0.98,-0.00034166386410319993,0.0006057204947428367,-0.707195967257409,-0.7070172418347229,0.0003903348021389498,-0.00039139482654601163,-0.000348157360173402,0.0,-0.0098066499999988,9.80665
97,131.265,0.984,-0.00034163880022084885,0.0006081033026078775,-0.7071927257576583,-0.7070204820914214,0.0003969412203878151,-0.00039160797686781627,-0.00035069543716963214,0.0,-0.0098066499999988,9.80665
98,131.357,0.978,-0.0003413987608324413,0.0006100915460488509,-0.7071899184065211,-0.7070232885190262,0.0004079140443354847,-0.0004008363968459892,-0.00036425785056781046,0.0,-0.0098066499999988,9.80665
99,131.462,0.974,-0.0003411807234463972,0.0006123324809060189,-0.7071867405507495,-0.7070264652898638,0.00041221644529011774,-0.0004041269058649224,-0.0003829341664941831,0.0,-0.0098066499999988,9.80665
100,131.561,0.972,-0.0003411201394967626,0.0006143720985025065,-0.7071838121840385,-0.7070293925535124,0.0003949572958109658,-0.000388452104098938,-0.000408833859088569,0.0,-0.0098066499999988,9.80665
101,131.651,0.99,-0.00034106506317891294,0.000616226296317495,-0.7071811500324829,-0.7070320537022837,0.0003792671599208299,-0.0003742022843116814,-0.000432379034174371,0.0,-0.0098066499999988,9.80665
102,131.75,0.992,-0.00034220413176130226,0.0006180500631804684,-0.7071782599187657,-0.7070349422630736,0.00041817545457613,-0.00037713652681670596,-0.0004426649391541694,0.0,-0.0098066499999988,9.80665
103,131.863,0.978,-0.0003442205301708883,0.000620002863349914,-0.707174983940949,-0.7070382161997665,0.0004961205586332756,-0.0003915961941498217,-0.0004450832453020197,0.0,-0.0098066499999988,9.80665
104,131.958,0.988,-0.00034588277099071267,0.0006213944708210826,-0.7071722771749944,-0.7070409214609961,0.0005386822517029972,-0.0003984887304250161,-0.000433240545447921,0.0,-0.0098066499999988,9.80665
105,132.068,0.992,-0.0003476808297845345,0.0006220447908154411,-0.7071693250434786,-0.7070438726618972,0.0004997211331501585,-0.00038624540669843503,-0.0003662157033104418,0.0,-0.0098066499999988,9.80665
106,132.172,0.944,-0.00034938081264414744,0.0006226596388101073,-0.7071665339373182,-0.7070466628882037,0.0004628851665183937,-0.0003746699006296706,-0.00030284676165320584,0.0,-0.0098066499999988,9.80665
107,132.268,0.938,-0.00035006995015068854,0.0006235812634385542,-0.7071640651496462,-0.7070491309227691,0.0004209743053652375,-0.00040715307788923125,-0.0003204453249927589,0.0,-0.0098066499999988,9.80665
108,132.353,0.984,-0.0003505470838226964,0.0006244508099443961,-0.7071618955123704,-0.707051299902161,0.0003826702232472591,-0.0004424399140989415,-0.00034753026172984437,0.0,-0.0098066499999988,9.80665
109,132.468,0.984,-0.00035154711461488915,0.0006253827454709263,-0.7071588914767933,-0.7070543030798205,0.0003556759902276041,-0.00046172181842849507,-0.00037578032794408393,0.0,-0.0098066499999988,9.80665
110,132.555,0.998,-0.00035299926368205823,0.0006256079910223997,-0.7071564841634395,-0.7070567098072486,0.0003839743077987804,-0.000420465729548596,-0.00038068066304549567,0.0,-0.0098066499999988,9.80665
111,132.668,0.966,-0.0003548853883325189,0.0006259005513363823,-0.7071533574231061,-0.7070598357865516,0.00042072959383949613,-0.00036688023479655425,-0.0003870454661082475,0.0,-0.0098066499999988,9.80665
112,132.753,0.966,-0.00035817325341048665,0.0006237886008554475,-0.7071504111379935,-0.7070627826135493,0.0004151192659046537,-0.0003791870874119857,-0.00040297529567032576,0.0,-0.0098066499999988,9.80665
113,132.865,0.992,-0.0003631671502710666,0.000620180273437707,-0.7071463185906584,-0.7070668762693686,0.0003959536382462826,-0.0004140284404857091,-0.0004279094496741895,0.0,-0.0098066499999988,9.80665
114,132.961,0.98,-0.0003665914087179076,0.000617999847545468,-0.7071429163385816,-0.7070702790717399,0.0003910281584575876,-0.00043030438408537457,-0.00044079152941406895,0.0,-0.0098066499999988,9.80665
115,133.068,0.986,-0.00036769772256688046,0.0006184577902240312,-0.7071394586575876,-0.7070737361004392,0.00042194755971932714,-0.00040543336579872916,-0.00042827512785528874,0.0,-0.0098066499999988,9.80665
116,133.156,0.996,-0.0003686075881622973,0.0006188344159783635,-0.707136614957331,-0.7070765792642293,0.0004473766000093543,-0.00038497869655363895,-0.00041798126489105895,0.0,-0.0098066499999988,9.80665
117,133.268,0.966,-0.0003694690423204281,0.0006200677726480911,-0.707132984562954,-0.7070802084064378,0.0004259046303735505,-0.00040092881282626034,-0.00041148430987490334,0.0,-0.0098066499999988,9.80665
118,133.357,0.97,-0.0003700634011572301,0.0006212771636387063,-0.7071300963082188,-0.7070830954929811,0.00039246927847289855,-0.0004263715377272721,-0.0004083300753395195,0.0,-0.0098066499999988,9.80665
119,133.45,0.994,-0.00037084399475800946,0.0006224678806539798,-0.7071270286472736,-0.7070861619028953,0.00036795397054410994,-0.00045002465399790925,-0.0004069456585731151,0.0,-0.0098066499999988,9.80665
120,133.554,0.988,-0.00037264454568286163,0.0006233747697757047,-0.7071233097354415,-0.7070898792393205,0.0004011478914649207,-0.0004594193055364951,-0.00041651344056653044,0.0,-0.0098066499999988,9.80665
121,133.666,0.988,-0.0003745836005250098,0.0006243514195991005,-0.7071193047534684,-0.7070938825247014,0.00043689519091809516,-0.0004695366225780473,-0.0004268172057902067,0.0,-0.0098066499999988,9.80665
122,133.748,0.976,-0.0003763595901747008,0.0006254842836551922,-0.7071163357033998,-0.7070968497062454,0.0004433656255714595,-0.00045005033933558146,-0.00043600091408006644,0.0,-0.0098066499999988,9.80665
123,133.866,0.992,-0.00037908068893375223,0.0006273084538427063,-0.7071120460708753,-0.7071011363591523,0.0004435311839915812,-0.0004095250531099714,-0.0004499777290038772,0.0,-0.0098066499999988,9.80665
124,133.948,0.996,-0.00030695564365724516,0.0005992798751185014,-0.7071082244058082,-0.7071049288340919,-0.0003207127887855959,0.0015197419968435895,-0.00045167819856094623,0.0,-0.0098066499999988,9.80665
125,134.068,0.998,0.0004304369203903295,0.0003081727393064571,-0.7070954547277404,-0.7071174242865822,-0.007964134642778429,0.02057200825605785,-0.0003857695852615975,0.0,-0.0098066499999988,9.80665
126,134.155,0.91,0.000965046529324734,9.712006584275943e-05,-0.7070861967111413,-0.7071264834896376,-0.013505615486922326,0.034384901293985935,-0.00033798584061957743,0.0,-0.0098066499999988,9.80665
127,134.264,0.6224899598393574,0.0018297575586634696,-0.0004236361893523241,-0.7070622684524923,-0.7071477689083799,-0.009593898810787205,0.026898774879601496,-1.5621228687135314e-05,0.0,-0.006798235458165873,10.176684988645444
128,134.348,0.5421686746987951,0.002558564481128232,-0.0009070482100561888,-0.7070398797130406,-0.7071673543244653,-0.0031030306247499164,0.01318961406122638,0.00031687584227936934,0.0,-0.003516328685257023,10.580359521713227
129,134.467,0.404,0.003102062855379943,-0.0013265628566120063,-0.7070176063009405,-0.7071875413155998,0.004385555868968824,-0.0037719383975510353,0.0006993755674921206,0.0,1.3566281505307303e-15,11.077709519800056
130,134.566,0.28,0.0022917438082207245,-0.0009905541112461978,-0.7070234593278247,-0.707184819214185,0.006208811100572611,-0.011532056359575322,0.0007889974117279197,0.0,1.3837364059438953e-15,11.299065223600032
131,134.664,0.25661914460285135,0.0014896098019419424,-0.0006579393936113738,-0.7070292532332254,-0.7071821246087441,0.00801364961266516,-0.019213789291679786,0.0008777139848098175,0.0,1.4105708405953097e-15,11.518185011199998
132,134.755,0.5443425076452599,0.0007247194188445223,-0.0003175087647290289,-0.707026461732544,-0.7071858994111705,0.00766393227360573,-0.019207934583406347,0.001073218654863631,0.0,1.4106794968716555e-15,11.519072257028112
133,134.868,0.6619718309859155,-0.00023400867701165264,0.00011926821821598289,-0.7070193605826822,-0.707193378840355,0.006328645667218422,-0.016025221401668746,0.001366307197351837,0.0,1.399779142444243e-15,11.430064108433744
134,134.967,0.6890459363957597,-0.0009545815645305405,0.0004283524105153259,-0.707021486832114,-0.7071911867924898,0.005311591047793619,-0.013006234262138565,0.0014222706574946611,0.0,1.3889438042901385e-15,11.341586858
135,135.055,0.7071428571428572,-0.0013510357814767169,0.0005526660883270814,-0.707040443058164,-0.7071713600025248,0.0047199300266802646,-0.009851256776601255,0.0010614644680172422,0.0,1.3766843203605975e-15,11.241480574800006
136,135.163,0.72265625,-0.0018375932295470769,0.0007052328747324342,-0.7070637075174073,-0.7071470271239314,0.003993800591677433,-0.005979238953441414,0.0006186568718403623,0.0,1.3616385900834321e-15,11.118622863600002
137,135.268,0.734375,-0.002131552285514843,0.0007292498239694007,-0.7070664373013973,-0.7071434830668657,0.004245078682899419,-0.004349905310198771,0.0006279518310911811,0.0,1.3466216830443474e-15,10.996000512000013
138,135.365,0.7333333333333333,-0.0023540956475645645,0.0007174100984841214,-0.7070635152113149,-0.7071457143653962,0.004739228043705211,-0.003429141506552722,0.0007569218901917307,0.0,1.3326424125760991e-15,10.881851106000003
139,135.461,0.7137254901960784,-0.0025622317574806887,0.0006975128796107479,-0.7070601806192556,-0.7071483796714898,0.004873806539922944,-0.0025376832671463413,0.0003959497315808961,0.0,1.3185766723936148e-15,10.766995621199998
140,135.559,0.6968641114982579,-0.0027376080024290746,0.0006521512560771821,-0.7070554210125132,-0.7071525000998812,0.003925604347139735,-0.001688330764882391,-0.0014689188580957304,0.0,1.3035117266243995e-15,10.643981003600018
141,135.665,0.6458333333333334,-0.002927300675536532,0.0006030866428674017,-0.707050272866445,-0.707156956889774,0.0028999978937210564,-0.0007696433644743491,-0.003486021618358414,0.0,1.287216989363818e-15,10.510924376400025
142,135.764,0.6506024096385542,-0.00303610065586844,0.0005628210367887129,-0.7070636714207609,-0.7071431368965573,0.0025417820177972353,3.423133911563479e-05,-0.0022733620018698664,0.0,1.2753274036562853e-15,10.413838541400002
143,135.868,0.5919282511210763,-0.0031298759740635627,0.0005221902837395408,-0.707083211315515,-0.7071232215889739,0.0023454595170915443,0.0008624545638448152,-7.004287326744076e-05,0.0,1.263836539408848e-15,10.320008514200016
144,135.95,0.6040609137055838,-0.0031868289494458068,0.00048087454324971643,-0.7070972686397782,-0.7071089458187679,0.0021672324072570465,0.0015523863788691641,0.0014252330060116347,0.0,1.2553384880485972e-15,10.250616658800013
145,136.066,0.7417218543046358,-0.003139863748393456,0.0003527498791492196,-0.7071070247361537,-0.7070994630008183,0.0017391506340355026,0.002805521531030435,0.001723784708883589,0.0,1.2475369982752516e-15,10.186912660400004
146,136.159,0.75,-0.0031022106130670106,0.00025002924327556953,-0.7071148464341098,-0.7070918603967724,0.001395947143435552,0.0038101902306077705,0.001963140815496393,0.0,1.2412823556121396e-15,10.135839627200012
147,136.256,0.7132352941176471,-0.0029931373131305192,0.00019429111804798258,-0.7075194202820482,-0.7066869157905983,0.00043359718006118664,0.0034756480935030755,0.0022894891295581624,0.0,1.2364160322498244e-15,10.096103081400004
148,136.348,0.746031746031746,-0.002862821483668796,0.00016120914182286847,-0.708055712186213,-0.7061500415904417,-0.0007117626601830297,0.0026262840456329163,0.0026285346094518944,0.0,1.232438425394941e-15,10.0636234566
149,136.457,0.7857142857142857,-0.0027059113106304737,0.00011764177439598026,-0.7085741201453525,-0.7056311841050925,-0.0017765840794891513,0.0019450252549721519,0.0026594626158478575,0.0,1.2269572062869461e-15,10.018865906000013
150,136.556,0.71875,-0.0025532346352792334,6.0399225480340266e-05,-0.7085721591259208,-0.7056337083447763,-0.0015627949135378007,0.0026400478421710416,0.001189007484819743,0.0,1.2188722880058243e-15,9.9528475382
151,136.666,0.7301587301587301,-0.0023835938848890195,-3.203606648128531e-06,-0.708569980215441,-0.7056365130555362,-0.001325251395814153,0.0034122951612806755,-0.00044483154965542374,0.0,1.2098890454712476e-15,9.879493796200011
152,136.753,0.7777777777777778,-0.002218732373326148,-6.89216237161121e-05,-0.7085678554959893,-0.7056391497677862,-0.001109289573505588,0.003693409219384141,-0.0006401817188598678,0.0,1.2005647279527382e-15,9.803354965600024
153,136.867,0.7272727272727273,-0.0019899109685651826,-0.000161461396982933,-0.7085649040262597,-0.7056427792297773,-0.0008145950734615884,0.003924319716170387,-0.00043884294107560205,0.0,1.1874213313887774e-15,9.69603098800002
154,136.948,0.7586206896551724,-0.0018254610252839477,-0.00022379648195190404,-0.7085630970471273,-0.7056450539056186,-0.000691313246328874,0.00401032937694373,-0.0002929785550804892,0.0,1.1779658371442762e-15,9.618821018145164
155,137.068,0.75,-0.001564236604155714,-0.00028393194202690414,-0.708563155158129,-0.7056455563655738,-0.0013204507305354697,0.003401847707385531,-5.041151598560536e-05,0.0,1.1628568816997114e-15,9.495447034274187
156,137.159,0.7407407407407407,-0.001366141418133522,-0.0003295346659171007,-0.7085631992256386,-0.7056459373977064,-0.0017975466560586806,0.002940415774637351,0.00013353515532796707,0.0,1.1513992571542526e-15,9.401888429838722
157,137.268,0.6788990825688074,-0.0011716040302992784,-0.0004165190213169417,-0.7085616584587541,-0.7056477736264682,-0.0011117204996401319,0.004695242048200311,0.00014502593859718594,0.0,1.138197326931828e-15,9.294086488645423
158,137.372,0.7040816326530612,-0.0009987650980261245,-0.0005091855345044211,-0.7085597120829641,-0.7056499380324148,-8.15700790176158e-05,0.007059254731790191,9.35704869392512e-05,0.0,1.1257570183320527e-15,9.192503659960153
159,137.461,0.7346938775510204,-0.0008435713162624305,-0.0006069961736526001,-0.7085585962866138,-0.7056511878953036,0.00027889485213068737,0.007767348670849487,0.00015877414517017496,0.0,1.1140344198438046e-15,9.096781379083659
160,137.56,0.7078651685393258,-0.000650199123125359,-0.0007685051402348242,-0.7085589209011451,-0.7056508628615439,-0.0008040613532380953,0.004810483606747636,0.0005423736093431963,0.0,1.0979290049411767e-15,8.96527068625499
161,137.654,0.797752808988764,-0.0004665932023689399,-0.0009218570883028014,-0.7085592291210032,-0.7056505542436307,-0.0018323228007600138,0.0020029551620447455,0.0009065993632044643,0.0,1.08263699483161e-15,8.840401947609582
162,137.763,0.7211538461538461,-0.00041676223942883835,-0.0008940616590116349,-0.7085708231892963,-0.7056390005800575,-0.002195824025198817,-0.0002861201576887429,0.0015434728171675955,0.0,1.0699666362174206e-15,8.736940618000006
163,137.866,0.6538461538461539,-0.0004365849076070805,-0.0007834291537092078,-0.7085863895568658,-0.7056234891609046,-0.002199233626946807,-0.002052642842754756,0.0022333112051710624,0.0,1.0600706578103444e-15,8.656133822
164,137.965,0.6517857142857143,-0.0004798544276441111,-0.0006765429933838401,-0.7085949563770372,-0.7056149696303854,-0.0020097468923777916,-0.0031884078942239526,0.0019501427263023752,0.0,1.0523075990211052e-15,8.592743636400002
165,138.065,0.7666666666666667,-0.0005855878230380037,-0.000567168283361572,-0.7085872299685841,-0.7056227296552254,-0.001324614597484566,-0.0028957827091217452,-0.0007594577893610946,0.0,1.048944887911905e-15,8.565285016400004
166,138.169,0.6853932584269663,-0.0006955505542476724,-0.00045341858493839213,-0.708579194503793,-0.705630800081059,-0.0006120770107954788,-0.002591452516615393,-0.003577442325651627,0.0,1.0454476683583362e-15,8.5367280516
167,138.259,0.7441860465116279,-0.0007612258903100299,-0.0003899189026406013,-0.7085870592693604,-0.7056228717569388,-0.0002551138507364347,-0.002226721596222207,-0.001852817631759986,0.0,1.0519914512207572e-15,8.59016209370077
168,138.354,0.759493670886076,-0.0008227691662085174,-0.0003321110932390479,-0.7085992714126027,-0.705610567767825,5.3160287637845846e-05,-0.0018149778910538242,0.0010662589618190563,0.0,1.0614242530526708e-15,8.667186765944887
169,138.465,0.6708860759493671,-0.0008936117182942976,-0.00027148546774192697,-0.7086075780029931,-0.7056021722693401,0.0005378416035233475,-0.001503430880469883,0.0032152034705731926,0.0,1.0732262398082894e-15,8.763557301219512
170,138.549,0.8076923076923077,-0.0009442982557410363,-0.00024458502021532753,-0.708597507936546,-0.7056122255476438,0.0012461264708601848,-0.0017327632720968342,0.00138010059074476,0.0,1.0842985812654125e-15,8.853969830487804
171,138.663,0.8356164383561644,-0.0010130871279901818,-0.00020807727000065685,-0.7085838414177962,-0.7056258692824845,0.0022073702193887495,-0.00204400008930484,-0.001110396174736684,0.0,1.0993253303857937e-15,8.976672548780487
172,138.768,0.821917808219178,-0.0010691111604873333,-0.0001463723658205818,-0.7085794679298375,-0.7056301889546182,0.0013090153982168447,-0.002248731186523658,-0.0011547888206256873,0.0,1.1114744141705018e-15,9.075877346385534
173,138.868,0.7662337662337663,-0.001120397783518481,-7.968216578401094e-05,-0.708577620613644,-0.705631975753265,-4.9900559962631676e-05,-0.002420592367701419,-0.0005622919531769897,0.0,1.1225676952249489e-15,9.166460860441754
174,138.954,0.8311688311688312,-0.0011704932857665535,-2.7113836203370652e-05,-0.7085785004581426,-0.7056310183952732,-0.0008469625664874863,-0.0025429470948874953,0.0001567079098895315,0.0,1.1316675811982331e-15,9.2407670684
175,139.046,0.8378378378378378,-0.0012482874563217229,9.783241970513766e-06,-0.7085894178911947,-0.7056199151142404,-0.00019784713629643618,-0.002571002617478366,0.0017723403195847958,0.0,1.1396227949079972e-15,9.305726317999989
176,139.148,0.8513513513513513,-0.0013345375149807328,5.069087211982884e-05,-0.7086015220017523,-0.7056076049548344,0.0005218243189155285,-0.002602107653394338,0.0035635849477255667,0.0,1.1484427057601287e-15,9.377746355599992
177,139.264,0.7721518987341772,-0.0014135628274867644,0.0001135353013741338,-0.7086042503582515,-0.7056047019047145,0.00027471638861150836,-0.002196636716169923,0.002609206898514708,0.0,1.156932750665359e-15,9.447072833333339
178,139.364,0.782051282051282,-0.001473681978398926,0.00017456649592245314,-0.7086019670018127,-0.7056068597094552,-0.0003858231311102936,-0.001661945577888205,0.0005300985917165921,0.0,1.1636047965169471e-15,9.501554222222227
179,139.464,0.8589743589743589,-0.001522043639892221,0.0002227525428902472,-0.7085948613399793,-0.7056138855886984,-0.0006240689299483744,-0.0013021818955006362,-0.0013407761998752395,0.0,1.169545328907698e-15,9.550062350401609
180,139.573,0.8045977011494253,-0.001538282501053561,0.0002354257339372782,-0.7085721558934603,-0.7056366460620488,0.00042632820802825555,-0.0014527182737141043,-0.0027340252866902017,0.0,1.1737511293770363e-15,9.584405317469882
181,139.659,0.8311688311688312,-0.0015510948135294773,0.0002454247654055753,-0.7085542415044639,-0.7056546038667106,0.0012550819132206075,-0.0015714900950568093,-0.0038332860340852025,0.0,1.1770694673620179e-15,9.611501603413648
182,139.756,0.8701298701298701,-0.00158574807055845,0.00024418441456799424,-0.7085622394714888,-0.7056464943934626,0.0019603118762388442,-0.0014406678510785408,-0.0027273170171358565,0.0,1.1801307363812181e-15,9.63649876195219
183,139.868,0.8051948051948052,-0.0016352257853846364,0.0002368868038581538,-0.7085846890741644,-0.7056238408508699,0.0026670532622022113,-0.0011655501756943252,-0.00035118367114805133,0.0,1.1833460776808522e-15,9.662754016135459
184,139.958,0.9090909090909091,-0.0016724945205243884,0.00022705139842262484,-0.7085980512297062,-0.7056103402067676,0.003079609089230444,-0.0009389358412184708,0.0013021668400690493,0.0,1.1857384447192703e-15,9.68228917549801
185,140.051,0.8461538461538461,-0.00170199953021062,0.00020252544427290335,-0.7085949410952003,-0.7056133990698514,0.0029440265319558767,-0.000684739929991243,0.0020846091804513677,0.0,1.187518365795853e-15,9.696823334063744
186,140.157,0.8974358974358975,-0.0017356288960895618,0.00017457113094095347,-0.7085913962107095,-0.705616885515947,0.002789491574202018,-0.0003950112569794681,0.0029764251813175313,0.0,1.189547093044432e-15,9.71338914920319
187,140.264,0.9,-0.0017198470365121427,0.00014608500051145056,-0.7085770136626157,-0.7056313719337758,0.0018361356444928545,0.0003499382600080303,0.0025497824809621846,0.0,1.1912192168768133e-15,9.72704307647059
188,140.366,0.95,-0.0016845766319863837,0.00011882095478964802,-0.7085589088063878,-0.7056496420456636,0.0006030183853852557,0.0012441168498140407,0.0016033990466143239,0.0,1.1926603787807564e-15,9.738811056470592
189,140.45,0.9746835443037974,-0.0016558621299413644,9.184673802581645e-05,-0.7085454198923072,-0.7056632596470367,-0.0003310372930336893,0.0019008626261550433,0.000753126967389162,0.0,1.1938215077785808e-15,9.748292394262295
190,140.548,0.8589743589743589,-0.001627392864831541,-8.19885882693461e-06,-0.708551234166582,-0.7056574831896105,-0.0001854036865969461,0.0014592443905831237,-0.0013141356662422462,0.0,1.1947862199820401e-15,9.756169867213115
191,140.664,0.9487179487179487,-0.0015936945510280857,-0.00012662017755056835,-0.7085581163687846,-0.7056506457502081,-1.3021050406560215e-05,0.0009365126015389467,-0.003761099599927766,0.0,1.195928124222869e-15,9.765494222950819
192,140.765,0.95,-0.0015758351324412158,-0.00012672722786256647,-0.7085651713826705,-0.7056436046983898,-0.0002820016152363463,0.00014509067610737122,-0.0036207023226323904,0.0,1.1969071477867763e-15,9.773488557028111
193,140.848,0.9125,-0.0015640994135587788,-0.00010043249135409352,-0.7085712412804431,-0.7056375398677118,-0.0006103861975777595,-0.0005914217034583834,-0.0029236471119623957,0.0,1.197707793288967e-15,9.78002632369478
194,140.949,0.8414634146341463,-0.0015487443000383118,-6.876238762284545e-05,-0.7085775060713917,-0.7056312876826387,-0.0009741865787692235,-0.001331948277269636,-0.002051621261776308,0.0,1.1985663167792674e-15,9.7870367
195,141.044,0.8888888888888888,-0.001526806983815508,-4.125558968928479e-05,-0.708575575239024,-0.7056332752971791,-0.0010666307173224177,-0.0009422292665019618,-0.0010653541709083935,0.0,1.1985663167792674e-15,9.7870367
196,141.15,0.9382716049382716,-0.0015023295572932228,-1.0563794100260443e-05,-0.7085734208365928,-0.7056354930565609,-0.0011697789140238722,-0.0005073848965927848,3.5112267323131417e-05,0.0,1.1985663167792674e-15,9.7870367
197,141.25,0.8617021276595744,-0.001473929295281375,-1.6691329455400755e-05,-0.7085720679176626,-0.705636910775285,-0.001079989705919774,0.000326277367281997,0.0003502610464741901,0.0,1.1985663167792674e-15,9.7870367
198,141.356,0.9113924050632911,-0.001440376302290909,-4.5978538810673066e-05,-0.7085710753029172,-0.7056379753450955,-0.0008632592618280832,0.0014850533981556663,0.00021458436804247137,0.0,1.1985663167792674e-15,9.7870367
199,141.457,0.9113924050632911,-0.0014002192573873513,-8.072001666336433e-05,-0.7085683462221609,-0.7056407920236424,-0.0005326102124563835,0.00208928232055623,-0.00012085878498784275,0.0,1.1986915142419651e-15,9.788059014864864
200,141.559,0.9620253164556962,-0.0013370047296426741,-0.00013472595737955433,-0.7085606542008341,-0.7056486252016717,0.00014492162884459532,0.0013158656985986382,-0.001030266123129803,0.0,1.199164482434379e-15,9.791921093243243
201,141.655,0.8888888888888888,-0.0012775087035300364,-0.0001855550780536155,-0.70855341465135,-0.7056559976045229,0.0007825986559513989,0.0005879441720503167,-0.001886178911969295,0.0,1.1996096289684155e-15,9.79555599054054
202,141.76,0.9512195121951219,-0.0012609583800783407,-0.00020934023580871438,-0.7085596240908686,-0.7056497890191804,0.0013830553414299976,-2.7710185036984342e-05,-0.0010423287129961284,0.0,1.2001083600164866e-15,9.7996284386
203,141.854,0.9146341463414634,-0.0012669441753582473,-0.00021699683702757763,-0.7085712396399247,-0.7056381123064982,0.0018790215021000393,-0.0005014818575001421,0.00047621610341626666,0.0,1.2005599240797221e-15,9.803315739
204,141.98,0.926829268292683,-0.0012608845197925025,-0.00021086991436388488,-0.7085794618293855,-0.7056298678377749,0.0017289412575774358,-0.0008702601836994335,0.001921869579236949,0.0,1.2009682532858392e-15,9.80665
205,142.067,0.8414634146341463,-0.0012365407680250981,-0.00018317750659087613,-0.7085746211651768,-0.705634778586365,0.00045882553420939997,-0.0007437235033139376,0.0020757136913016694,0.0,1.2009682532858392e-15,9.80665
206,142.157,0.95,-0.0012113575765415805,-0.0001545301882050097,-0.7085696135815125,-0.7056398586711135,-0.000855087283067664,-0.0006128234891220666,0.002234862772747906,0.0,1.2009682532858392e-15,9.80665
207,142.268,0.9125,-0.0011851911615567191,-0.00013388183751445785,-0.7085567213115644,-0.7056528528121364,-0.0014575537150507943,-0.0003379838489044798,-1.183665458929107e-05,0.0,1.2009682532858392e-15,9.80665
208,142.358,0.8552631578947368,-0.0011655821081242464,-0.00012196237708657901,-0.7085440623037409,-0.7056655985080871,-0.0016116900280335768,-7.78981885824014e-05,-0.0026358330984704538,0.0,1.2009682532858392e-15,9.80665
209,142.468,0.918918918918919,-0.0011499054171015082,-0.00011009836146520902,-0.7085296494125437,-0.7056800984251738,-0.0014808329287918105,4.153202549446211e-05,-0.004371700597026622,0.0,1.2009682532858392e-15,9.80665
210,142.554,0.8648648648648649,-0.0011541657470313445,-0.0001062106672851375,-0.7085204915348691,-0.705689286633045,-0.0007424687501042975,-0.00026048665524894965,-0.0027975724963424688,0.0,1.2009682532858392e-15,9.80665
211,142.649,0.88,-0.0011588719254422093,-0.00010191612138854757,-0.7085103752746471,-0.705699436397554,7.316609844573154e-05,-0.0005941119421166187,-0.001058710059540485,0.0,1.2009682532858392e-15,9.80665
212,142.769,0.8933333333333333,-0.0011690117141271183,-0.00010413868500700333,-0.7085097731190553,-0.7057000239045064,0.0005522185707038968,-0.0006781843432455208,-0.0015120893560808001,0.0,1.2013620930774025e-15,9.809865945951417
213,142.868,0.9873417721518988,-0.0011790434435276643,-0.00010900995889112197,-0.7085141130290458,-0.7056956492797005,0.0007284787853025895,-0.0006135415492262642,-0.002938701461662153,0.0,1.2018434528226467e-15,9.813796546558704
214,142.97,0.8641975308641975,-0.001176241547743831,-0.00011103898903092621,-0.7085181126122709,-0.705691637781766,0.0008904166478826893,-0.000582698466621739,-0.003423628659104517,0.0,1.2020017558464356e-15,9.81508918884462
215,143.056,0.8690476190476191,-0.001152674977611209,-0.00010792409220264136,-0.7085207232587974,-0.7056890555868793,0.000995215379625597,-0.0006144080694627594,-0.002242829584548027,0.0,1.2015902687158277e-15,9.811729141434261
216,143.148,0.8352941176470589,-0.0011274642281670169,-0.00010459187699098886,-0.7085235160434538,-0.7056862932388609,0.0011073256507923932,-0.0006483299701763986,-0.0009796491792089263,0.0,1.201150073180759e-15,9.808134672111553
217,143.268,0.8192771084337349,-0.001092975172330852,-0.000107886816079795,-0.708520618780461,-0.7056892554237499,0.0005447598317067219,-0.00011770598441033717,-0.0004937516312500746,0.0,1.2013606014801397e-15,9.809853766135458
218,143.372,0.891566265060241,-0.0010624398589113159,-0.00011381137754826835,-0.7085154811747775,-0.7056944594248618,-0.00022746836933573407,0.0005730508617496729,-0.0005392210404537041,0.0,1.2018582138241305e-15,9.813917079282868
219,143.452,0.8804347826086957,-0.0010390966387465797,-0.00011548365140507804,-0.7085138040109819,-0.7056961782830875,-0.0007036640849131476,0.0009363209404352408,-0.0005822073226698011,0.0,1.202169221539125e-15,9.81645665
220,143.565,0.927710843373494,-0.001007014814189165,-0.00010018663754563971,-0.7085253589371474,-0.7056846248431539,-0.0006550973623553188,0.00042064204919653805,-0.0006919521803641116,0.0,1.202169221539125e-15,9.81645665
221,143.665,0.9036144578313253,-0.0009786238190056136,-8.664945713905784e-05,-0.708535584535524,-0.7056744005600267,-0.0006121179618616674,-3.571095189963485e-05,-0.0007890715234564166,0.0,1.202169221539125e-15,9.81645665
222,143.764,0.9466666666666667,-0.0009821952557690031,-0.00011053248460407045,-0.7085414377001645,-0.7056685143733901,-0.00035292248940088145,-0.00029552692221482084,-0.0008094416987150902,0.0,1.201804127190126e-15,9.813475428399999
223,143.863,0.9866666666666667,-0.0009953536136624844,-0.00014569908087897876,-0.7085459985741693,-0.7056639100898344,-2.816313644867386e-05,-0.0004972456488758558,-0.000806879065930843,0.0,1.2013285437618248e-15,9.809591994999998
224,143.953,0.8552631578947368,-0.0010113585232269895,-0.000171395374712524,-0.7085517133875121,-0.7056581442079738,0.0003021299873945202,-0.0007100596243981864,-0.0005095120100301572,0.0,1.2009682532858392e-15,9.80665
225,144.068,0.9444444444444444,-0.0010576380239411703,-0.00016414986119323236,-0.7085690370316976,-0.7056406811646633,0.0009481487050653846,-0.0011700347717852355,0.001755418106914037,0.0,1.2009682532858392e-15,9.80665
226,144.163,0.9583333333333334,-0.00109586891583549,-0.00015816443698164415,-0.7085833478681987,-0.7056262551723632,0.0014818163414021368,-0.0015500142413658064,0.003626447333954722,0.0,1.2009682532858392e-15,9.80665
227,144.26,0.9285714285714286,-0.001119090685823932,-0.0001382258682770784,-0.7085832438120333,-0.7056263273025927,0.001027968836948253,-0.0009180447105318026,0.0034458031579851847,0.0,1.2009682532858392e-15,9.80665
228,144.358,0.9,-0.0011370042813577635,-0.0001132311628207705,-0.7085779762225118,-0.7056315926846937,0.0002190790744497058,7.823979714901576e-05,0.0025297477655111256,0.0,1.2009682532858392e-15,9.80665
229,144.457,0.8888888888888888,-0.0011521429144880394,-9.141191738460353e-05,-0.7085735761323481,-0.7056359907131678,-0.0005537671926431681,0.000759844676824249,0.0015455157496034417,0.0,1.2010595268730888e-15,9.8073953054
230,144.575,0.9382716049382716,-0.0011553431355832032,-8.262151205895278e-05,-0.7085729549736093,-0.7056366102589476,-0.0012526258793659536,-5.801081401296277e-05,7.715048268436796e-05,0.0,1.2016263838886398e-15,9.8120240442
231,144.666,0.8961038961038961,-0.0011578111026989653,-7.584247066374666e-05,-0.7085724759444124,-0.7056370880442524,-0.0017915762225166475,-0.0006887298789807264,-0.0010552329011262543,0.0,1.2020635363328357e-15,9.8155936648
232,144.767,0.987012987012987,-0.0011750956531562727,-6.959527330455646e-05,-0.7085774734767532,-0.7056320412403047,-0.001598575090290947,-0.0006469790055416336,-0.001188592921011136,0.0,1.2017897155710866e-15,9.8133577486
233,144.857,0.9230769230769231,-0.0011941071837385697,-6.43453019025167e-05,-0.7085832988026234,-0.7056261601248177,-0.0012302622578572026,-0.00042570158140731114,-0.0010286401407792966,0.0,1.2013573669999037e-15,9.8098273546
234,144.961,0.948051948051948,-0.0012142958743879492,-5.918639200878815e-05,-0.7085878507827896,-0.7056215555102876,-0.0010154576303904258,-0.0003168284920976531,-0.0008503511259331933,0.0,1.2009682532858392e-15,9.80665
235,145.064,0.8571428571428571,-0.0012280813636013003,-5.724311504857146e-05,-0.70858475714144,-0.7056246382976366,-0.0015379673233255986,-0.0007211106233298967,-0.0006966056562960077,0.0,1.2009682532858392e-15,9.80665
236,145.174,0.868421052631579,-0.0012428037307223596,-5.5167770722125805e-05,-0.70858145325262,-0.7056279305948054,-0.002095987383741979,-0.0011528682392091282,-0.0005324114654212913,0.0,1.2009682532858392e-15,9.80665
237,145.268,0.918918918918919,-0.0012301404024017578,-6.649380065362185e-05,-0.7085854637457973,-0.705623923969872,-0.002438272107429691,-0.0009603166908203503,-0.0001198649035387716,0.0,1.2009682532858392e-15,9.80665
238,145.372,0.9594594594594594,-0.0012112421930249497,-8.156101471675955e-05,-0.7085912240303509,-0.7056181706319268,-0.0027909152927731305,-0.0006385634178332142,0.00038927895169107627,0.0,1.2009682532858392e-15,9.80665
239,145.459,0.9864864864864865,-0.001201649212266703,-8.571223198037578e-05,-0.7085949332109088,-0.7056144619315429,-0.0030414784750140635,-0.0005548792964022517,0.0006449049898975755,0.0,1.2009682532858392e-15,9.80665
240,145.568,0.9078947368421053,-0.0012157201705375066,-5.543450822909454e-05,-0.708594923553558,-0.7056144498158994,-0.0031688972496876754,-0.0012284951387493753,0.00025043344872800993,0.0,1.2009682532858392e-15,9.80665
241,145.654,0.9473684210526315,-0.0012268220275218076,-3.154566196662208e-05,-0.7085949159339968,-0.7056144402567679,-0.0032694294939255445,-0.0017599718583992592,-6.080097824973031e-05,0.0,1.2009682532858392e-15,9.80665
242,145.781,0.8875,-0.001237276392056088,-1.2163956774364643e-05,-0.7085947217388916,-0.7056146179821677,-0.0026931433673016173,-0.0014477128491270806,-0.00026317950780504085,0.0,1.2009682532858392e-15,9.80665
243,145.861,0.9615384615384616,-0.0012423815134311254,-3.91628817140314e-06,-0.7085945538219497,-0.7056147777420769,-0.002149521924089693,-0.0009776138283778435,-0.0003265591568779138,0.0,1.2009682532858392e-15,9.80665
244,145.96,0.961038961038961,-0.0012519291585124392,2.0904504206146277e-06,-0.708594415085126,-0.7056149001362648,-0.001592659793072276,-0.0006206102814641883,-0.0002902787116572603,0.0,1.2009682532858392e-15,9.80665
245,146.058,0.974025974025974,-0.0012740102133573933,-8.384936931083153e-06,-0.7085945477827925,-0.7056147268295245,-0.0014944836094294774,-0.0011459845382379723,0.00019417374687507374,0.0,1.2009682532858392e-15,9.80665
246,146.187,0.9615384615384616,-0.001303076091673719,-2.2173967220567072e-05,-0.7085947224562514,-0.7056144987012644,-0.0013652516942261623,-0.0018375486109302038,0.0008318713708617069,0.0,1.2009682532858392e-15,9.80665
247,146.258,0.9358974358974359,-0.0013086596019251991,-3.114722070197534e-05,-0.7085945602888631,-0.7056146507112863,-0.0002456873785701649,-0.0015040626425760891,0.0008841472750064091,0.0,1.2009682532858392e-15,9.80665
248,146.368,0.9605263157894737,-0.0013168424484861412,-4.511159327106634e-05,-0.7085942974438568,-0.7056148986845957,0.0015359311606735321,-0.0009553254235070097,0.00095172413182445,0.0,1.2009682532858392e-15,9.80665
249,146.461,1.0,-0.0013215959091224226,-5.470788118130391e-05,-0.708595400882276,-0.7056137811860411,0.0025439691636710083,-0.0006207287744619128,0.0010066034868359667,0.0,1.2009682532858392e-15,9.80665
250,146.562,0.961038961038961,-0.001319171014486295,-5.738401464815159e-05,-0.7086012455361506,-0.7056079160515188,0.0018924467125906322,-0.0007106568021699953,0.0010583043107763028,0.0,1.2009682532858392e-15,9.80665
251,146.66,0.9240506329113924,-0.0013168181464235183,-5.998065900212223e-05,-0.7086069165864447,-0.7056022251289131,0.0012602764135226372,-0.0007979137003421815,0.0011084694666788002,0.0,1.2009682532858392e-15,9.80665
252,146.777,0.967032967032967,-0.0013400552938948867,-4.90278551513382e-05,-0.7086089003886702,-0.7056001890803568,0.001593980340287053,-0.001140557336155303,0.0013406124375760404,0.0,1.2009682532858392e-15,9.80665
253,146.868,0.9655172413793104,-0.001364804609753811,-3.690707022654259e-05,-0.7086092164423019,-0.7055998250803257,0.002132508753798914,-0.0014681808275636356,0.001565318509936338,0.0,1.2009682532858392e-15,9.80665
254,146.962,0.9425287356321839,-0.0013899401480760077,-2.3601767925769137e-05,-0.7086108882090826,-0.7055980981402626,0.00244253956992181,-0.0016674850238487216,0.0017373515404760845,0.0,1.2009682532858392e-15,9.80665
255,147.068,0.9887640449438202,-0.0014167887154442282,-5.865543057506325e-06,-0.708617456409146,-0.7055914480687794,0.0019349391935392299,-0.001407950327731622,0.0017222023345530007,0.0,1.2009682532858392e-15,9.80665
256,147.162,0.875,-0.001440597822355662,9.862807297363848e-06,-0.7086232810393909,-0.7055855508355773,0.0014848030107095205,-0.0011777969179674658,0.0017087681330740436,0.0,1.2009682532858392e-15,9.80665
257,147.267,0.9318181818181818,-0.0014550128288629985,1.1322133832211048e-05,-0.7086316884418044,-0.7055770777151468,0.0007529899817891191,-0.00023587452806529045,0.0014725527772679837,0.0,1.2009682532858392e-15,9.80665
258,147.368,0.9876543209876543,-0.0014648230630737455,7.361909432883166e-06,-0.7086404085879903,-0.7055682994758635,-2.7194350725055685e-05,0.0008981929598376388,0.0011716807750053642,0.0,1.2009682532858392e-15,9.80665
259,147.468,0.9012345679012346,-0.0014704029879868204,-2.950413273851917e-06,-0.7086450350926202,-0.705563641117735,-0.00027577263437753295,0.0013719973926728257,0.0010639546699934045,0.0,1.2009682532858392e-15,9.80665
260,147.564,0.9659090909090909,-0.0014660453217446628,-2.7872021829228146e-05,-0.7086400579920702,-0.7055686479591622,0.0007168942731412668,0.0003013943825066422,0.0014074955553557047,0.0,1.2009682532858392e-15,9.80665
261,147.653,0.9318181818181818,-0.0014620054019993296,-5.0976429760773634e-05,-0.7086354438051019,-0.705573289718402,0.0016371792186534386,-0.0006911438248348707,0.0017259865844936537,0.0,1.2009682532858392e-15,9.80665
262,147.762,0.9368421052631579,-0.0014672026646824659,-5.916287797529951e-05,-0.7086289595743179,-0.7055797908447445,0.0019095184191636014,-0.0011760724037445755,0.0016136375048718254,0.0,1.2009682532858392e-15,9.80665
263,147.863,0.9090909090909091,-0.0014764646310593949,-5.7935107091966385e-05,-0.708622586115529,-0.7055861725644197,0.0017872666413015817,-0.0013051948502777104,0.0012893478503436145,0.0,1.2009682532858392e-15,9.80665
264,147.971,1.0,-0.0014814574223659784,-5.646104184435657e-05,-0.7086188587831513,-0.7055899056881572,0.0015930951792588485,-0.0012433042762488205,0.0009757032931823823,0.0,1.2009682532858392e-15,9.80665
265,148.068,0.8918918918918919,-0.0014739258170686689,-5.474270488571824e-05,-0.7086230660687084,-0.7055856961611463,0.0012634664869146683,-0.0006984742108528173,0.0007750395499735159,0.0,1.2009682532858392e-15,9.80665
266,148.148,0.9459459459459459,-0.0014677141838337763,-5.332551976519219e-05,-0.7086265359949411,-0.705582224386292,0.0009916077715793393,-0.0002491298270211905,0.0006095436792858381,0.0,1.2009682532858392e-15,9.80665
267,148.261,0.9534883720930233,-0.001464706400110045,-7.155142697413048e-05,-0.7086175799622388,-0.705591222633001,0.0009309026361556678,0.0001305234746257888,-0.00014596592873425743,0.0,1.2009682532858392e-15,9.80665
268,148.366,0.9761904761904762,-0.0014649625976442242,-9.919007324131253e-05,-0.7086019256728064,-0.7056069398661786,0.0010455603847598313,0.0003483464193201304,-0.0011240598495778384,0.0,1.2009682532858392e-15,9.80665
269,148.458,0.8961038961038961,-0.001465531986654949,-0.0001129898984608335,-0.7085898617515941,-0.705619052332473,0.0012061486340255586,0.00032842497377859705,-0.0017863343999374116,0.0,1.2010765759126062e-15,9.807534521372549
270,148.558,0.9090909090909091,-0.0014672755980946076,-9.402157778235484e-05,-0.7085821364614707,-0.7056268088488977,0.0015767648460014506,-0.0003805412773918937,-0.00187123490716604,0.0,1.2015475438550712e-15,9.811380266470588
271,148.665,0.8734177215189873,-0.001469141262335042,-7.372547465638164e-05,-0.7085738704010388,-0.7056351083214722,0.001973324192815675,-0.001139135166144357,-0.001962078449900677,0.0,1.2020514795535087e-15,9.81549521372549
272,148.774,0.9882352941176471,-0.0014768544057292415,-5.706432800242973e-05,-0.7085837681035374,-0.7056251542430179,0.0018957742227822092,-0.001122047934258881,-0.00036865270692812966,0.0,1.2017607950886148e-15,9.81312159493927
273,148.868,0.9058823529411765,-0.001484997984422369,-4.372632503187031e-05,-0.7085970053458321,-0.7056118451774144,0.0017053078160610175,-0.0009045847592619262,0.00143821850449184,0.0,1.2013037464416154e-15,9.80938950951417
274,148.96,0.961038961038961,-0.0014880323832425946,-3.330272227819325e-05,-0.7086073741463517,-0.705601427051937,0.0015737745257844006,-0.0007464155156825817,0.002728287682523471,0.0,1.2009682532858392e-15,9.80665
275,149.068,0.9090909090909091,-0.0014742115083127701,-3.0330651501740176e-05,-0.7086104361876535,-0.7055983809589821,0.0016126411770325778,-0.0007532616855532114,0.002558064753694284,0.0,1.2009682532858392e-15,9.80665
276,149.163,0.9736842105263158,-0.001462054257217092,-2.7716329985415844e-05,-0.7086131296499099,-0.7055957015253643,0.0016468294350749542,-0.0007592837794208946,0.002408331621853803,0.0,1.2009682532858392e-15,9.80665
277,149.263,0.881578947368421,-0.0014557218476500395,-4.793545057714844e-05,-0.7085991800677921,-0.7056097211159018,0.0015681021846830645,-0.0005542365019209212,0.00042360138613686447,0.0,1.2009682532858392e-15,9.80665
278,149.352,0.8875,-0.0014520038632006972,-7.274520917039372e-05,-0.7085817854473956,-0.7056271944320834,0.0014640028476714903,-0.00030903314892198315,-0.0018848530594263568,0.0,1.2009682532858392e-15,9.80665
279,149.464,0.8928571428571429,-0.0014418846532498785,-0.00010280970064503508,-0.7085653373634153,-0.7056437290828999,0.0014324881399859497,-9.455812391844485e-05,-0.004236437771766237,0.0,1.2009682532858392e-15,9.80665
280,149.568,0.9012345679012346,-0.0014157784499699091,-0.0001271737681607292,-0.7085667781670049,-0.7056423303741826,0.0017087907916254587,-0.00018441030965281324,-0.004720211123669271,0.0,1.2009682532858392e-15,9.80665
281,149.666,0.8641975308641975,-0.0013911783738022525,-0.0001501322163966652,-0.7085681358473104,-0.7056410123601988,0.0019691529056703066,-0.00026907871544094397,-0.005176074474500846,0.0,1.2009682532858392e-15,9.80665
282,149.769,0.9733333333333334,-0.0013849130850180746,-0.00016726065621054485,-0.7085703809194885,-0.7056387666590807,0.0015482485166330906,-0.00041261724677806857,-0.004219617325426545,0.0,1.2009682532858392e-15,9.80665
283,149.864,0.96,-0.0013843290707126706,-0.00018120218239315726,-0.7085726685585844,-0.7056364672181551,0.0009758618991428214,-0.0005594722544440601,-0.002956775810190952,0.0,1.2009682532858392e-15,9.80665
284,149.958,0.9871794871794872,-0.0013810092177956742,-0.00019346213106135056,-0.7085746681116364,-0.7056344627181697,0.0004705762643512895,-0.0005908977669517811,-0.0020059576084141663,0.0,1.2009682532858392e-15,9.80665
285,150.063,0.9367088607594937,-0.001364368809205081,-0.00019991804277362415,-0.7085756565219924,-0.7056335005259075,0.0001942142763551155,-8.888988747231263e-05,-0.002352778502481865,0.0,1.2009682532858392e-15,9.80665
286,150.169,0.9259259259259259,-0.0013475699205326673,-0.00020643543935935002,-0.7085766543457804,-0.7056325291699095,-8.477973057444306e-05,0.0004178990194309291,-0.002702902452683651,0.0,1.2009682532858392e-15,9.80665
287,150.267,0.9146341463414634,-0.0013310710361699742,-0.00020525356928502867,-0.7085708119086914,-0.7056384272857259,0.0005148740071827572,1.6744989499187734e-05,-0.002834137803707941,0.0,1.2009682532858392e-15,9.80665
288,150.366,0.8048780487804879,-0.0013141531004018587,-0.0002021927335569621,-0.708563157551421,-0.7056461459737101,0.0013427857703352665,-0.0006137765907828307,-0.002916858939684022,0.0,1.2009682532858392e-15,9.80665
289,150.468,0.975,-0.0013018931716106297,-0.00019595003999447964,-0.7085585149102149,-0.7056508325526657,0.001944580551236873,-0.0010872932970523832,-0.0030863505527376806,0.0,1.2009682532858392e-15,9.80665
290,150.565,1.0,-0.0013032296964162993,-0.0001822494961905545,-0.7085622521731969,-0.7056470809204001,0.0018855201778933406,-0.0010949762072414164,-0.003459314350038767,0.0,1.2009682532858392e-15,9.80665
291,150.668,0.987012987012987,-0.0013046488928594331,-0.00016770149606886082,-0.7085662206070849,-0.7056430972284066,0.0018228065855801054,-0.0011031343489885342,-0.0038553480729461046,0.0,1.2009682532858392e-15,9.80665
292,150.767,0.9333333333333333,-0.0012915115200624488,-0.00014668184522575285,-0.7085808962372553,-0.7056283879973346,0.0013972439210983728,-0.0010024056435846199,-0.0010141866362615528,0.0,1.2009682532858392e-15,9.80665
293,150.868,0.8823529411764706,-0.0012738817705095966,-0.0001231864762369158,-0.7085990342678397,-0.7056102101676497,0.0008566085918229243,-0.000867995340561165,0.002823486968344363,0.0,1.2009682532858392e-15,9.80665
294,150.978,0.9240506329113924,-0.001257103249641683,-0.00010083882966568377,-0.7086149958195914,-0.705594215481381,0.0004737952201649906,-0.0008551876923841651,0.005574350830212964,0.0,1.2009682532858392e-15,9.80665
295,151.062,0.8354430379746836,-0.0012482541551974435,-8.9077412726326e-05,-0.708620978340774,-0.7055882243664482,0.0005185516358057949,-0.001063992451058677,0.005337005793457689,0.0,1.2009682532858392e-15,9.80665
296,151.162,0.85,-0.0012377195189543022,-7.507572589375856e-05,-0.708628100389801,-0.7055810920867663,0.0005718330829972234,-0.0013125695447187868,0.005054452178272864,0.0,1.2009682532858392e-15,9.80665
297,151.268,0.9259259259259259,-0.0012387128041543806,-3.506001051119792e-05,-0.7086300700905876,-0.7055791133533034,-1.7258232337973977e-05,-0.0011441627696336775,0.00380086613149035,0.0,1.2009682532858392e-15,9.80665
298,151.373,0.9868421052631579,-0.0012438134609075585,1.31007780136756e-05,-0.7086301322234065,-0.7055790428864093,-0.0008193483226931599,-0.0008311264153400988,0.002236104866659292,0.0,1.2009682532858392e-15,9.80665
299,151.458,0.9078947368421053,-0.0012485256557548366,4.1909637248943075e-05,-0.7086300867405316,-0.7055790809328388,-0.0013250407813727842,-0.000575987540368347,0.001062335932876248,0.0,1.2009682532858392e-15,9.80665
300,151.562,0.9868421052631579,-0.0012573678312735692,2.3451854150424905e-05,-0.708629525705947,-0.7055796292289352,-0.0011859712339862122,-0.0002546972806776258,0.00011660383735218678,0.0,1.2009682532858392e-15,9.80665
301,151.668,0.881578947368421,-0.0012663800486291989,4.6391136846309306e-06,-0.7086289538822356,-0.7055801880691873,-0.0010442272722268472,7.277163785324246e-05,-0.0008473154138548553,0.0,1.2009682532858392e-15,9.80665
302,151.769,0.9176470588235294,-0.0012722721184040713,-1.1406459573870464e-05,-0.708624239771764,-0.7055849116515357,-0.0008279338754542596,-0.0001604481889176559,-0.0002480211372734763,0.0,1.2009682532858392e-15,9.80665
303,151.868,1.0,-0.0012773540736322737,-2.665062919018145e-05,-0.7086185462512696,-0.7055906200765686,-0.0005950214687050297,-0.0005293416728514132,0.0007299248841535386,0.0,1.2009682532858392e-15,9.80665
304,151.975,0.9027777777777778,-0.0012851516912806323,-4.2641999512178956e-05,-0.7086137934256834,-0.7055953784414777,0.00011460081266699681,-0.0008899204083718268,0.0007603852590546675,0.0,1.2009682532858392e-15,9.80665
305,152.056,0.7763157894736842,-0.001294644081765861,-5.399288014991972e-05,-0.7086123768897955,-0.705596782710861,0.0013648507168984318,-0.0011035117739811905,-0.0008151181899013833,0.0,1.2009682532858392e-15,9.80665
306,152.172,0.9375,-0.0013082381224607518,-7.024846229778986e-05,-0.7086103482704993,-0.7055987937633114,0.0031553320612292633,-0.0014093957049772128,-0.0030713947340845933,0.0,1.2009682532858392e-15,9.80665
307,152.263,0.9397590361445783,-0.0013251699230587921,-7.000850539823373e-05,-0.708618993168148,-0.7055900797177694,0.0029172855466455382,-0.0011047189814071675,-0.0017044934772502721,0.0,1.2009682532858392e-15,9.80665
308,152.36,0.9605263157894737,-0.001344865414943046,-6.633795255647758e-05,-0.7086308985008872,-0.7055780861256562,0.002231801393445477,-0.0006368049713541173,0.0005770171259670154,0.0,1.2009682532858392e-15,9.80665
309,152.468,0.9078947368421053,-0.0013606932974475484,-6.026869393493671e-05,-0.7086393413376348,-0.7055695774872321,0.001605994030216128,-0.00033515088781934646,0.002227262312936413,0.0,1.2009682532858392e-15,9.80665
310,152.569,0.9358974358974359,-0.0013583782710220277,-4.9030918479858565e-05,-0.7086337349781375,-0.7055752133965253,0.0014062655536106541,-0.0006683694673739137,0.0012736211719748028,0.0,1.2009682532858392e-15,9.80665
311,152.666,0.9102564102564102,-0.0013561549288113785,-3.8238203438841886e-05,-0.7086283506526797,-0.7055806261014899,0.0012144471156826067,-0.000988391271500608,0.0003577479969917824,0.0,1.2009682532858392e-15,9.80665
312,152.767,0.948051948051948,-0.001365863578411966,-3.5276316237112254e-05,-0.708616044675857,-0.7055929659662967,0.0018353151488117716,-0.001254991100169714,-0.0011757183304289046,0.0,1.2009682532858392e-15,9.80665
313,152.856,0.9736842105263158,-0.0013777211002976026,-3.493935909627392e-05,-0.7086033607049463,-0.7056056809904062,0.002607798468321534,-0.0014716184595599696,-0.0026862431266344543,0.0,1.2009682532858392e-15,9.80665
314,152.963,0.9342105263157895,-0.0013854256605578216,-3.266344200681741e-05,-0.7085945222733804,-0.7056145422119794,0.0028684286195785596,-0.0011481812386774418,-0.003655985560501071,0.0,1.2009682532858392e-15,9.80665
315,153.068,0.9487179487179487,-0.0013695076207925138,-2.3725247957582846e-05,-0.7086088249018356,-0.7056002098245618,0.0007298286613074008,0.0012617719313133065,-0.0015746051706370858,0.0,1.2009682532858392e-15,9.80665
316,153.178,0.8888888888888888,-0.0013528315791336255,-1.4361425620292378e-05,-0.7086238086078364,-0.7055851949425054,-0.001510609390214076,0.003786484776064743,0.0006058885711245137,0.0,1.2009682532858392e-15,9.80665
317,153.268,0.8607594936708861,0.0004197546689808766,-0.0011866373363537154,-0.7086175853403708,-0.7055846094423659,-0.007192203497334907,0.03451229879318585,0.0007934366466466221,0.0,1.2013444602085552e-15,9.809721962650602
318,153.37,0.7341772151898734,0.002735373110572278,-0.0027209493453245605,-0.7086073096856961,-0.705585985771512,-0.014302365467828258,0.07433204060555444,0.0007276283794486492,0.0,1.2018364231074916e-15,9.813739144578314
319,153.465,0.6931818181818182,0.005779758722881581,-0.004775768004544941,-0.7085899234598918,-0.705560331641554,-0.020222515864081567,0.10694454055886143,0.0007578144589973423,0.0,1.2025323049645372e-15,9.81942145116279
320,153.562,0.7407407407407407,0.011293603752525458,-0.00856959362229891,-0.7085509927052276,-0.7054611484843973,-0.024364919315071214,0.12811895329938688,0.0010365157423346274,0.0,1.2038868854362666e-15,9.830482440116281
321,153.662,0.7283950617283951,0.016977980071745134,-0.012480754052972543,-0.7085108579066046,-0.7053588978069163,-0.028635438336709413,0.14994824478446156,0.001323836652991581,0.0,1.2052833601493897e-15,9.841885521511628
322,153.766,0.6309523809523809,0.022674163718803094,-0.016423380202104362,-0.7084198125302763,-0.7051991378482195,-0.02567276479981792,0.13828010634198865,0.002058652580761396,0.0,1.207130598585486e-15,9.856969368032786
323,153.864,0.7441860465116279,0.02793868385884024,-0.020078808605624575,-0.7083104527724878,-0.7050230613596008,-0.019342028436663095,0.11085659525067054,0.002959476547224114,0.0,1.2090600229924046e-15,9.872724313934427
324,153.961,0.7590361445783133,0.032566630018224504,-0.02328110004310329,-0.7082110373627286,-0.7048620496055626,-0.013665736731455614,0.08547062839729036,0.0034428238915465226,0.0,1.2106724626256428e-15,9.885890882730923
325,154.067,0.7228915662650602,0.03517177865123702,-0.02503099638136846,-0.7081395409680812,-0.7047419201153363,-0.009944385691848611,0.0651243395475006,0.0022532764418296616,0.0,1.2111837181872827e-15,9.89006560120482
326,154.17,0.7045454545454546,0.03770319666256015,-0.026731367351569287,-0.7080700680563011,-0.7046251905163429,-0.006328355908080051,0.045353889061386925,0.0010973954293691007,0.0,1.2116805042518947e-15,9.894122167269076
327,154.264,0.7368421052631579,0.03933344915171506,-0.027813367111312763,-0.7080220563607518,-0.7045421380116805,-0.005237595841288502,0.03902672496437985,0.0004797073174267307,0.0,1.212487940771357e-15,9.9007153868
328,154.362,0.6973684210526315,0.04084147713955673,-0.0288090347147308,-0.7079763382883578,-0.7044621666172913,-0.004722939092665926,0.03573148599267016,-4.107686225323737e-05,0.0,1.213429499881933e-15,9.9084038004
329,154.454,0.782051282051282,0.042117835346896115,-0.029665212766666643,-0.7079385011540776,-0.7043926284700112,-0.0038642973732200036,0.03084682418033319,-0.00028418524190771636,0.0,1.2141789040719834e-15,9.91452315
330,154.567,0.7307692307692307,0.04273199868744769,-0.030179426681104522,-0.7079268033880868,-0.7043451083731935,-0.0002400890504938285,0.012589893704278713,0.0010992036527023871,0.0,1.2141789040719834e-15,9.91452315
331,154.66,0.7532467532467533,0.043237460551795386,-0.030602629283252462,-0.7079171760231562,-0.7043059989129806,0.002742666471749508,-0.0024357216432688775,0.0022377449553459745,0.0,1.2141789040719834e-15,9.91452315
332,154.77,0.7162162162162162,0.04263855109536554,-0.030264209232462102,-0.7079365903729884,-0.7043366580005499,0.004593183449563858,-0.012407787802143282,0.0022330970092400977,-0.0031762429149800723,1.2149568592158124e-15,9.920875635829962
333,154.868,0.7162162162162162,0.041705148048714745,-0.029682411383911412,-0.7079641773134812,-0.7043896699275837,0.0056813972264994385,-0.018686027298133887,0.00177749582502228,-0.007067140485829447,1.2159098542670026e-15,9.92865743097166
334,154.968,0.6533333333333333,0.040991144297539424,-0.02915097653801783,-0.7088509804587293,-0.7035548082034602,0.0016805349637699042,-0.020339183412184197,0.041876585326647724,-0.00980665,1.2165808405785551e-15,9.93413645
335,155.065,0.7333333333333333,0.0408133783108914,-0.028769855193477335,-0.7115650394798018,-0.700825708671807,-0.013235729512390906,-0.011680409571979786,0.16835166219588238,-0.00980665,1.2165808405785551e-15,9.93413645
336,155.155,0.7272727272727273,0.040648440797506645,-0.028416237451120194,-0.7140832385715183,-0.6982935544671806,-0.02707556253150851,-0.0036464956996255724,0.28569967166217686,-0.00980665,1.2165808405785551e-15,9.93413645
337,155.267,0.7012987012987013,0.040430589635048676,-0.028913374284939685,-0.7257301026437892,-0.6857880700242492,-0.015246023103593125,0.0025938236599326,0.30287511342763646,-0.00980665,1.2173398525146318e-15,9.940334252800001
338,155.363,0.6413043478260869,0.0402393502537218,-0.02967505125427682,-0.7387612209084673,-0.6717197829543946,0.005295722559096862,0.006597328599310055,0.27145982831716164,-0.00980665,1.2182621961331555e-15,9.947865760000001
339,155.456,0.6333333333333333,0.039984548586861346,-0.030519182921281387,-0.7497931491182327,-0.6597400724977199,0.02115996554493904,0.009418095229193596,0.23538306302257947,-0.00980665,0.0007004750000012191,9.954450225
340,155.566,0.6222222222222222,0.03934046253009048,-0.03204128674450956,-0.7549959478517685,-0.6536970319327855,0.020035546686914135,0.007542157649165913,0.16490011201017774,-0.00980665,0.004981155555557143,9.958730905555555
341,155.659,0.7127659574468085,0.03879591704572979,-0.03332815634051125,-0.7593946776901205,-0.6485879158187967,0.019084901652402397,0.005956137695142886,0.10530998069970685,-0.00980665,0.008600276388889924,9.962350026388888
342,155.77,0.651685393258427,0.038445100262505943,-0.0341542222687398,-0.7622600159635454,-0.6452165644208917,0.015104989836534409,0.0038494891560391497,0.06840294757930922,-0.00980665,0.00980665000000122,9.969733817322835
343,155.865,0.6538461538461539,0.038244054586653836,-0.0346257896767603,-0.763921441268889,-0.6432354430976677,0.010755141548019584,0.0019756435809880853,0.048163606059242386,-0.00980665,0.009806650000001221,9.977069500393702
344,155.97,0.6282051282051282,0.038061799525215864,-0.03502423995754463,-0.7655116087964232,-0.6413389773442016,0.006598875418729218,7.737550233304584e-05,0.029654257870240782,-0.00980665,0.009806650000001221,9.9831697
345,156.068,0.5977011494252874,0.03800499831082684,-0.03504800402281118,-0.7662977241678305,-0.6404004126153064,0.004567170068924112,-0.0012042291010013104,0.023326707428426026,-0.00980665,0.009806650000001221,9.9831697
346,156.167,0.5647058823529412,0.03794761749220938,-0.03507201057853962,-0.7670918611246601,-0.6394522706953003,0.00251473303187659,-0.0024989113023285636,0.016934590145369792,-0.00980665,0.009806650000001221,9.9831697
347,156.262,0.5294117647058824,0.037837499148532495,-0.03497630838288719,-0.7675719070567277,-0.6388879337444398,0.0018709963932633336,-0.005446022009477119,0.012660240761935606,-0.012630965200000108,0.012630965200001329,9.9859940152
348,156.368,0.5882352941176471,0.03769500651907742,-0.03482720248725834,-0.7680070215503257,-0.6383813986769096,0.0016252709738910263,-0.009342001885175604,0.008553753599524604,-0.016788984799999893,0.016788984800001117,9.9901520348
349,156.468,0.52,0.03728611744490704,-0.03445195285524115,-0.7683780048782997,-0.6379785341695152,0.001023538280278575,-0.015488364033399961,0.005704354137182256,-0.0196133,0.019613300000001225,9.9918780052
350,156.588,0.5151515151515151,0.03594853904027205,-0.03327779504492226,-0.768701292852404,-0.6377265215176977,-0.0008399968408047552,-0.030488519154488556,0.005446836590766919,-0.0196133,0.019613300000001225,9.987170813199999
351,156.664,0.4696969696969697,0.03510140605066999,-0.03253416176505373,-0.76890604190267,-0.6375669135048799,-0.0020202357508240505,-0.039988617397843484,0.005283742144703892,-0.0196133,0.019613300000001225,9.9841895916
352,156.774,0.535483870967742,0.03324990669306184,-0.030953454486835414,-0.7691283477971579,-0.6374712282478278,-0.002279337298125023,-0.0457085481584073,0.0050859606787562375,-0.022908334400000126,0.01961330000000122,9.9732845968
353,156.865,0.5524861878453039,0.031558075097852085,-0.029516622532576562,-0.7692932963111535,-0.6374267221890173,-0.0021226175362244054,-0.04838427007198367,0.004932142514735447,-0.026477955000000445,0.01961330000000122,9.962575734999998
354,156.948,0.5231481481481481,0.030016423106093593,-0.028208743006306193,-0.7694407513452166,-0.6373877063774773,-0.0020057133715599925,-0.05045702448487266,0.0046859722100196875,-0.02941995,0.0199271128000016,9.952808311599998
355,157.058,0.5619834710743802,0.027991250335457105,-0.026508179221509415,-0.7695989926233857,-0.6373556002121897,-0.0021742948926985186,-0.04863499960303315,0.0030442621866241903,-0.02941995,0.02424203880000102,9.9398635336
356,157.164,0.5868725868725869,0.026039720211025418,-0.024869454119796016,-0.7697514796732579,-0.6373246615438218,-0.0023367461767047483,-0.0468792301714422,0.0014622507095338531,-0.02941995,0.028400058400000802,9.927389474800002
357,157.268,0.5230263157894737,0.02427086888736611,-0.023382113311868062,-0.7698668287218601,-0.6373091760354886,-0.0018327302807010504,-0.04530324628949161,0.0006935638096183449,-0.03247962480000011,0.029419950000001215,9.9151507756
358,157.378,0.6012658227848101,0.02245139255959787,-0.021851435998184544,-0.7699767533643451,-0.6372980395531916,-0.0010657447921113004,-0.04368804654479044,0.00015675485599792342,-0.036794550799999534,0.02941995000000121,9.902205997600001
359,157.454,0.5854430379746836,0.021212445756136376,-0.02079864900073462,-0.7700515988820276,-0.6372884776730049,-0.0006957056270912735,-0.04250036475062351,-7.667808141553902e-05,-0.038677427599999606,0.02941995000000121,9.8932623328
360,157.572,0.5748502994011976,0.019413588161999177,-0.01919686977996454,-0.77016022624248,-0.6372607902052517,-0.0012204832066782041,-0.04016315153241148,0.0005060068387538491,-0.0340486887999998,0.029419950000001208,9.8793761164
361,157.668,0.5936599423631124,0.017950110797277267,-0.01789372736306674,-0.7702486010442041,-0.6372382648077577,-0.0016474208985455718,-0.03826168993115408,0.0009800555873662707,-0.03028293519999966,0.029419950000001208,9.868078855599999
362,157.765,0.5830985915492958,0.016634310255917734,-0.016794809792859404,-0.7703085777330957,-0.6372300737090435,-0.0005989359715858954,-0.03691958631592933,6.983535590625398e-05,-0.02941995,0.029419950000001208,9.859629352191236
363,157.863,0.5938375350140056,0.01535322771497689,-0.015749109591514633,-0.7703604839298424,-0.6372261157785288,0.0008989284529287394,-0.035735286371522706,-0.001261470344036318,-0.02941995,0.029419950000001208,9.851971569721115
364,157.988,0.6274509803921569,0.0138029516332011,-0.014505250678607336,-0.7704183575540995,-0.6372226235795494,0.0019817508458423398,-0.03324438362156028,-0.0010019333817926626,-0.03125625498007953,0.027583645019921676,9.844040295019921
365,158.068,0.6295264623955432,0.012899736386641603,-0.01380471124725623,-0.770446545688376,-0.6372220414359134,0.0017956139703477713,-0.030608985031327644,0.001243424271623181,-0.03438188047808793,0.02445801952191328,9.840914669521913
366,158.157,0.6086956521739131,0.011894909424844335,-0.013025361129878258,-0.7704779049877587,-0.6372213938011185,0.0015885366963600996,-0.027677104099694344,0.0037413846610478783,-0.03785913884462167,0.020980761155379536,9.83743741115538
367,158.268,0.6467236467236467,0.010827825384972354,-0.012174487740414925,-0.7704995287391818,-0.637230973441008,0.001682831356900332,-0.02476380522321757,0.0028585731089266044,-0.03623340562249016,0.022606494377511045,9.830083561244981
368,158.352,0.6182336182336182,0.010085168818680244,-0.011572796416562567,-0.7705097982284566,-0.6372418429611308,0.0018770587471609247,-0.022818197230677538,0.0007970854228579486,-0.03292513815261046,0.02591476184739075,9.82346702630522
369,158.459,0.6253521126760564,0.009169544606049101,-0.010824586997503455,-0.7705229369686253,-0.637254093476038,0.002074751261621713,-0.020521413251757614,-0.0013476033764891287,-0.02941995,0.028713871200001174,9.815750571199999
370,158.575,0.6704225352112676,0.008339745705600492,-0.01011116679124657,-0.770537488342258,-0.6372588236952885,0.0020225768461823524,-0.019004610225558462,-0.001093006015289603,-0.02941995,0.024163585600001744,9.8112002856
371,158.666,0.6759776536312849,0.007688782775076011,-0.009551500939786305,-0.7705489036439871,-0.6372625344707351,0.001981646916829052,-0.017814704403281287,-0.0008932787750382079,-0.02941995,0.02059396500000142,9.807630665
372,158.766,0.6666666666666666,0.007077567520273761,-0.009077270488804497,-0.7705525854655159,-0.6372719517394069,0.002471389046626159,-0.016596991335973314,-0.0004964225091888931,-0.02941995,0.0196133000000012,9.80665
373,158.857,0.6837606837606838,0.0065529473212884255,-0.00868842615876659,-0.7705532476417276,-0.6372821411002463,0.0030792528072312313,-0.015516134755065157,-8.147932004209837e-05,-0.02941995,0.0196133000000012,9.80665
374,158.962,0.6483516483516484,0.005981665945258928,-0.008274791666987701,-0.7705534419505636,-0.6372935322123651,0.003514133003210031,-0.014113518315548102,0.0003577973272307287,-0.030171265927418475,0.021115931854838153,9.807401315927418
375,159.068,0.656891495601173,0.005560530942811859,-0.008017294041149635,-0.770551034723661,-0.637303360121032,0.0027353986647099863,-0.011987116011310152,0.0006207472562833237,-0.034362817943548576,0.029499035887098356,9.811592867943547
376,159.176,0.6708074534161491,0.0051314499969225815,-0.007754937969541156,-0.7705485820773829,-0.637313373461938,0.0019419712254838764,-0.00982059290887999,0.0008886585047518871,-0.038633455846773586,0.03804031169354838,9.815863505846773
377,159.259,0.6894409937888198,0.004873324645403746,-0.007545124641964578,-0.7705354024630567,-0.6373337658013964,0.0018812920196901851,-0.00846135074714125,-0.0003120496295890954,-0.0392266,0.036548478714861235,9.81377852871486
378,159.37,0.6363636363636364,0.004549252349774355,-0.007262115476419887,-0.7705144447342321,-0.6373647831152336,0.0019621245860380263,-0.006733772578652878,-0.002332768766733217,-0.0392266,0.032176839558233916,9.809406889558232
379,159.468,0.7184466019417476,0.004294395335084784,-0.007032541920295219,-0.770499075651536,-0.6373878212778689,0.0018610412355112137,-0.005675670343907578,-0.0034823817056251626,-0.0392266,0.0294199500000012,9.80665
380,159.578,0.7216828478964401,0.00409605316230027,-0.0068317946405047104,-0.7704906194135145,-0.6374014836489212,0.0012636672101536276,-0.005798876138990266,-0.0029924321006909184,-0.0392266,0.0294199500000012,9.80665
381,159.66,0.6973684210526315,0.003948198088042754,-0.006682146668297271,-0.7704843156724439,-0.637411668325524,0.0008183520276144258,-0.005890720458960978,-0.002627196940649101,-0.0392266,0.0294199500000012,9.80665
382,159.765,0.7171052631578947,0.0037840982444652662,-0.006525176250075636,-0.7704791805302877,-0.6374204916295915,0.00058916289918126,-0.005483325682580567,-0.0010180251449349743,-0.0392266,0.0294199500000012,9.80665
383,159.867,0.6905537459283387,0.00363495299942902,-0.006386792319639592,-0.7704753872046899,-0.6374273463045753,0.0005053047477267783,-0.004873921982944085,0.0010097005181012105,-0.0392266,0.0294199500000012,9.80665
384,159.965,0.6742671009771987,0.003517658988203302,-0.006268369372991656,-0.7704699394581698,-0.6374358022367851,0.00020904633758284924,-0.004133785369831959,0.0022707672453897254,-0.0392266,0.0294199500000012,9.80665
385,160.068,0.7326732673267327,0.0034786451710991425,-0.006191004520173208,-0.7704583703008034,-0.6374507498230055,-0.0008012984445193124,-0.002854781996169265,0.0013693955269376255,-0.0392266,0.0294199500000012,9.80665
386,160.178,0.7392739273927392,0.003436979929531602,-0.006108381861823427,-0.7704460148900241,-0.6374667132646001,-0.0018803074351136186,-0.0014888560631317349,0.0004067655363579228,-0.0392266,0.0294199500000012,9.80665
387,160.268,0.7352941176470589,0.0034243434107061104,-0.006075306553311873,-0.7704350853096452,-0.637480307195338,-0.0021179513145522352,-0.0008570896470956964,0.00020706595773023739,-0.0392266,0.0294199500000012,9.80665
388,160.362,0.7157534246575342,0.0034152728189892857,-0.00604740376962514,-0.7704235120870936,-0.6374946078358513,-0.0022420257023240066,-0.00029071330571605095,0.00011160273100699241,-0.0392266,0.0294199500000012,9.80665
389,160.468,0.6952054794520548,0.003402658346563182,-0.00602168458024298,-0.77041124984183,-0.6375097387203789,-0.0023668151698075126,0.00013838616723662846,-4.3006339443010126e-05,-0.0392266,0.0294199500000012,9.80665
390,160.567,0.6860068259385665,0.0033843568561849093,-0.0060133649958551,-0.7704019518588321,-0.637521150344476,-0.002442033844999969,-3.357193781994286e-05,-0.00031573057640343904,-0.0392266,0.0294199500000012,9.80665
391,160.668,0.6450511945392492,0.003365685638728291,-0.006004877339055346,-0.770392466037794,-0.6375327925064337,-0.002518772089388218,-0.00020900394398873476,-0.0005939643939084701,-0.0392266,0.0294199500000012,9.80665
392,160.777,0.6909722222222222,0.0033133801207033443,-0.00602436280854901,-0.7703869202139774,-0.6375395803093941,-0.002258970194160411,-0.0003226746635160152,0.0003648576227425894,-0.035850540163935435,0.032796009836065766,9.80665
393,160.868,0.6940298507462687,0.0032617225303622744,-0.006047748047744649,-0.7703834558783058,-0.6375438118957395,-0.001956940641470279,-0.0003987755321088241,0.00147819037732388,-0.0321931420081974,0.0364534079918038,9.80665
394,160.969,0.6553030303030303,0.003212729302391113,-0.006080141583260148,-0.7703797744485819,-0.6375482030332685,-0.0013406717293626455,-0.00037569083011251315,0.002252725332491429,-0.03065543346456629,0.03799111653543491,9.805414516535434
395,161.067,0.7022900763358778,0.003182642426992587,-0.006125043562067285,-0.7703765446572128,-0.6375518246601971,-0.00015469565694256767,-0.00012827893250665767,0.002039451515082064,-0.034439101574803156,0.03420744842519804,9.801630848425196
396,161.176,0.6870229007633588,0.0031491784533350525,-0.006174985558903779,-0.7703729523382411,-0.6375558527962707,0.0011644001787079212,0.00014690368829976857,0.0018022387998002935,-0.03864746712598366,0.029999082874017535,9.797422482874016
397,161.268,0.716,0.0031031259659993326,-0.006270577001714562,-0.7703584416498042,-0.6375726619557136,0.0015229589166119652,0.0005122886829776615,0.0016435597147792607,-0.0392266,0.02639950180000127,9.799863798199999
398,161.379,0.6991869918699187,0.0030433771839029444,-0.006398470179581204,-0.7703382362872031,-0.6375960942413726,0.0017781605850904908,0.0009844218876677996,0.0014618727043271256,-0.0392266,0.022045349200001663,9.804217950799998
399,161.468,0.6951219512195121,0.002977589815923318,-0.006441415560700672,-0.7703190859885057,-0.6376191113661375,0.0016514881576878402,-0.00029219656716956933,0.0008779647555204602,-0.0392266,0.020672418200000684,9.80665
400,161.565,0.7226890756302521,0.002861138893164206,-0.006339060988402686,-0.770290832329716,-0.6376547815751432,0.0006842993488535762,-0.005825983686372365,-0.0008551921360193825,-0.0392266,0.024477398400001012,9.80665
401,161.664,0.7522522522522522,0.0027422869204513202,-0.0062345960125521835,-0.7702619961212605,-0.637691187252376,-0.00030283149727605013,-0.011473869509062791,-0.002624084221198881,-0.0392266,0.028360831800000603,9.80665
402,161.752,0.7567567567567568,0.0021749510584163022,-0.005707867141596393,-0.7702445947068862,-0.6377180390155396,-0.0008095004314091331,-0.017965414080769397,-0.0023753717150538293,-0.0392266,0.0294199500000012,9.8018643548
403,161.861,0.7741935483870968,0.0012191073870263496,-0.004817572254602831,-0.7702275531932203,-0.6377482783710956,-0.0012337988894432295,-0.026812661886214194,-0.001068912688642887,-0.0392266,0.029419950000001197,9.793312956000001
404,161.97,0.7649769585253456,7.209808246000496e-05,-0.003811563943383364,-0.7702117986036777,-0.6377748757973377,-0.0019536887118592346,-0.03459381312131866,-5.035708833020506e-05,-0.0392266,0.030557521400001054,9.7836239858
405,162.068,0.7567567567567568,-0.0014332923027596052,-0.0026200837578675613,-0.7702008257917975,-0.637789756265404,-0.0033340630149470123,-0.03894554823637051,0.00015134242305068872,-0.0392266,0.03440172820000157,9.7720913654
406,162.17,0.7703349282296651,-0.003000127193497795,-0.0013799717280454566,-0.7701894051100445,-0.6378052440995138,-0.004770779126323548,-0.043474905192851354,0.0003612745675490913,-0.0392266,0.03840284140000061,9.760088025800002
407,162.259,0.8086124401913876,-0.0045014285319126286,-0.00013199840455915346,-0.7701752059171152,-0.637811504741905,-0.0034024285972122383,-0.04517464023828488,0.00044343024096451313,-0.041894008799999355,0.039226600000001194,9.749614523600002
408,162.365,0.6943231441048034,-0.006338841392950758,0.0014153773444535596,-0.7701567371690802,-0.6378162934020557,-0.0008083201795814812,-0.04637060141563423,0.0005041220211424028,-0.04605202840000026,0.039226600000001194,9.7371404648
409,162.467,0.691304347826087,-0.008141423723721406,0.0029370745836560293,-0.7701331184621076,-0.6378217441394122,0.0011296305470168905,-0.04763070201873795,0.0003947931053116361,-0.04801335839999959,0.03820670840000078,9.727176908399999
410,162.562,0.6903765690376569,-0.00991424056485607,0.004443401975128726,-0.7700952026354023,-0.6378291152565717,0.0014147180076688809,-0.04910180991888061,-0.00016367454174910905,-0.044286831399999636,0.03448018140000082,9.7234503814
411,162.666,0.7130044843049327,-0.0118550084751506,0.006092434066845984,-0.7700536947830091,-0.6378371846900939,0.001726813754066808,-0.05071228593587866,-0.0007750496501102649,-0.04020726500000022,0.030400615000001414,9.719370815
412,162.768,0.7109004739336493,-0.013854315477662757,0.00782322800559842,-0.7699970851017917,-0.6378417622280856,0.001411150549267267,-0.05262247305438221,-0.0008981158602963994,-0.0392266,0.02638737148594498,9.712324992971887
413,162.859,0.680952380952381,-0.015665778324297996,0.009400236725340717,-0.7699419747547828,-0.6378448795930071,0.0009494304701864951,-0.05442244532596653,-0.0008698716347318899,-0.0392266,0.022803415060241777,9.70515708012048
414,162.959,0.6761904761904762,-0.017670294838147596,0.01114667461862772,-0.7698778570124732,-0.637846564832828,0.00029950014083623836,-0.056143440262187226,-0.0008803134837726867,-0.03849303169291315,0.020346868307088043,9.697309713385826
415,163.068,0.6445497630331753,-0.019919799654766732,0.013112844356575386,-0.7697914402211335,-0.6378403142133324,-0.0010713109399165094,-0.05682510225556979,-0.0010844435983733743,-0.03428466614173155,0.02455523385826964,9.688892982283463
416,163.168,0.6536585365853659,-0.02198356554157299,0.014916669804233541,-0.7697121587611888,-0.6378345797000339,-0.002328935784643627,-0.057450480231150035,-0.0012717189328693922,-0.030423780314959972,0.02841611968504121,9.68117121062992
417,163.268,0.6767676767676768,-0.02415104266165318,0.016866780481654017,-0.769614632510962,-0.6378198768214504,-0.0030472404700572376,-0.05832066135066249,-0.001384604795786895,-0.02941995,0.029419950000001183,9.682101574696357
418,163.354,0.6203208556149733,-0.02604641059540906,0.018588077525553307,-0.7695252470504869,-0.637804522445223,-0.0035020203540773644,-0.05914298736071795,-0.0014592089543217172,-0.02941995,0.029419950000001183,9.685516035829961
419,163.463,0.5932203389830508,-0.028476368412095266,0.020774556915790058,-0.7694063779053434,-0.6377825292630784,-0.0037872845008969994,-0.060384883761405786,-0.0013150684665889337,-0.02941995,0.02769397960000186,9.6881072148
420,163.56,0.6209150326797386,-0.03073625113611052,0.022737339854423572,-0.7692809643176909,-0.6377540453600824,-0.0030165583230555076,-0.06219264833629131,-0.00034677859209477366,-0.02941995,0.0200840192000012,9.6843022346
421,163.668,0.54421768707483,-0.03325240922058099,0.02492270642527315,-0.7691413285706139,-0.637722331323757,-0.0021584302075206927,-0.06420541714131839,0.0007313173506409395,-0.02941995,0.011611073600000878,9.6800657618
422,163.753,0.6015037593984962,-0.03532147413255188,0.026650520684138552,-0.7690003423088952,-0.6377056958698286,-0.0010260456822355185,-0.06574819492272616,0.0009741324168886007,-0.02941995,0.012229009760956666,9.684008269521911
423,163.855,0.5871559633027523,-0.03784386245455158,0.028727392234385488,-0.7688173197287801,-0.6376894391447308,0.0005362570912860487,-0.06758112270399841,0.0009958823703125584,-0.02941995,0.016214182270916904,9.691978614541831
424,163.949,0.6375,-0.04018511985461636,0.030653345358657956,-0.7686431451516449,-0.6376763635840503,0.0018805347418271651,-0.06894966737326384,0.000794047582523374,-0.02941995,0.019339807768925302,9.699050342231075
425,164.047,0.6617647058823529,-0.0428424393751667,0.032816399410223754,-0.7683902059990099,-0.637687430157752,0.0020446887302891224,-0.06622197864896306,-0.0022913594785851175,-0.02941995,0.01551091653386621,9.702879233466135
426,164.157,0.5789473684210527,-0.04582514495945872,0.035244317223206444,-0.7681062947052357,-0.637699851822111,0.002228943207134228,-0.06316028722372664,-0.005754571485952759,-0.02941995,0.011213181474104801,9.707176968525896
427,164.262,0.6222222222222222,-0.047975394276063406,0.03701622777275768,-0.7678572273946488,-0.6377439009669703,0.0018202139629915786,-0.0536467976060271,-0.0058095631251360025,-0.02670244457831366,0.012524155421687532,9.719453521686745
428,164.359,0.65,-0.04962592817696305,0.03839014036311072,-0.7676377109300765,-0.6378001101795799,0.0011608519513780873,-0.04168138156334559,-0.004293518917014197,-0.022882183333333334,0.01634441666666786,9.734734566666667
429,164.44,0.5714285714285714,-0.05100420906328099,0.03953742819629186,-0.767454403366877,-0.6378470477694911,0.0006102506839483881,-0.03168964239368595,-0.0030275438566241064,-0.01969206827309275,0.019534531726908444,9.747495026907629
430,164.551,0.25,-0.052028077203320124,0.04041505588613977,-0.7672185611976161,-0.6379914462983296,0.0005427791073452778,-0.02716965764761048,-0.0033764272192492364,-0.0196133,0.015337600600001965,9.769188596999996
431,164.663,0.5,-0.053045156923322574,0.041287730699557976,-0.7669808786440564,-0.6381386282479822,0.0004874197847675514,-0.02277876943349824,-0.003767031849361966,-0.0196133,0.010944221400001057,9.791155493
432,164.752,1.0,-0.05365128093198154,0.04182868766120644,-0.7667661252564316,-0.6383108901715939,0.0008773292461410319,-0.019773139506578375,-0.004563667569309497,-0.0196133,0.007453054000001112,9.801550542
433,165.351,1.0,-0.056062456156050454,0.04413007325081425,-0.7651798688071356,-0.6398506684523684,-0.00017042042408131185,-0.008114003844559285,-0.0058087361082434594,-0.013376270600000321,1.2080635737262518e-15,9.864587688199999
434,165.463,1.0,-0.05632928248137181,0.04442700576572186,-0.7649020749695699,-0.6401390517532713,-0.0008092589933329874,-0.007111238076377545,-0.0054897392090724135,-0.00980665,1.2094755104744536e-15,9.876117026693226
435,165.548,0.7692307692307693,-0.05652399062753433,0.04462699335033185,-0.7648048752844616,-0.6402240010387497,-9.730038607862928e-05,-0.007187108631687329,-0.003968364147254328,-0.00980665,1.2098822128709848e-15,9.87943800378486
436,166.06,1.0,-0.053778565544936215,0.042852570828478945,-0.7646190677476014,-0.6407904862066883,-0.0013393836319446017,0.056519702225921974,-0.0023020688043907927,-0.005177911200000196,1.2129779358186976e-15,9.9047165
437,166.157,1.0,-0.05124683245678035,0.0409383665146921,-0.7647648485977532,-0.6409558823035512,-0.0023986197728664057,0.0868619957938801,-0.0011962975584901589,-0.0013729309999998655,1.2129779358186976e-15,9.9047165
438,166.258,1.0,-0.047296354513847845,0.03784766834659264,-0.7649748765752795,-0.6411724713423135,-0.0023171999324112956,0.1050568776130679,-0.0007289313361980123,0.0,1.2123438245809626e-15,9.899538588799999
439,166.548,1.0,-0.033701794427809906,0.02695801441749205,-0.7656085657181498,-0.6418108766561145,-0.00024356488743800962,0.12347728997468957,-0.0014249491132795507,0.0,1.2090483676939465e-15,9.872629141200001
440,166.649,1.0,-0.028815807961698005,0.02295733922696229,-0.7657941796620514,-0.6420023566069718,0.0005007126957643309,0.12177904352545749,-0.002269769752165264,0.0,1.207592794170964e-15,9.8607434814
441,166.85,1.0,-0.019784061981909122,0.015559636180848973,-0.766023909274969,-0.642283291073538,-0.0001238445519476779,0.11222202493058135,-0.001312365267715007,0.0,1.2054428285521139e-15,9.84318767983871
442,167.054,1.0,-0.011573184901656416,0.008796561888881194,-0.7661420214129663,-0.6424785907626379,0.0004248066898435766,0.09784073561429942,-0.0024551136326045634,0.0,1.2040235165221984e-15,9.8315981176
443,167.151,1.0,-0.007956003840800604,0.005801982208562525,-0.766169476693673,-0.6425481157977061,0.0013479298586027044,0.08988566145300761,-0.004065810671309232,0.0,1.2035575408399235e-15,9.8277931374
444,167.246,0.6666666666666666,-0.004949859423064911,0.003260614804935416,-0.7661783958103161,-0.64258911382582,0.0017652081301723025,0.08163873924921548,-0.003865473128840386,0.0,1.2031043628272565e-15,9.824092658102767
445,167.549,1.0,0.0025862977710244353,-0.0031541170486996586,-0.7661595814853802,-0.6426297723796288,0.0025799568444490094,0.05420967876911213,-0.0006821713629178872,0.0,1.2016600109997318e-15,9.812298630399999
446,167.643,1.0,0.004428252267250751,-0.0046706087736808725,-0.7661495094215383,-0.6426251338264918,0.003158575831912388,0.04563511162996396,-0.0005044766119681569,0.0,1.2012084469364963e-15,9.80861133
447,168.045,1.0,0.008108123424037139,-0.00826322458035151,-0.766087140233047,-0.6426322825525458,0.004552424257538227,0.011093823346668433,-0.0009520188327934515,0.0,1.2009682532858392e-15,9.80665
448,168.55,1.0,0.006588805409414325,-0.007618209804231679,-0.766109844393683,-0.6426295984024852,0.0007256169857242096,-0.017941500486961942,-0.002369311137265883,0.0,1.2009682532858392e-15,9.80665
449,168.959,1.0,0.0026346530591354307,-0.00494115515577362,-0.7661746746275938,-0.6426074116619159,0.0022882933458313196,-0.026579162992537004,0.0012400977106299404,0.0,1.2009682532858392e-15,9.80665
450,169.355,1.0,-0.0015160202154831529,-0.0017283600977906425,-0.7661939018547014,-0.6426035149069155,0.003383794347755585,-0.02529812120646264,-0.001910196599317447,0.0,1.2009682532858392e-15,9.80665
451,169.461,0.375,-0.0025494441696925388,-0.0009045149894537942,-0.766194477453878,-0.6426026771781357,0.0034534102054312654,-0.02373735009878865,-0.003131864492781431,0.0,1.2009682532858392e-15,9.80665
452,169.556,0.625,-0.00333808617425694,-0.0002605499955126965,-0.7661989219609101,-0.6425933552772523,0.0031530236247926816,-0.022243152886629036,-0.002674361092969752,0.0,1.2009682532858392e-15,9.80665
453,169.948,1.0,-0.005974748328048561,0.0020184160972658806,-0.766177053195903,-0.6425985686798723,-0.0015587565186433127,-0.01416837218217564,-0.0012057637015823342,0.0,1.2009682532858392e-15,9.80665
454,170.055,0.18181818181818182,-0.006333695136515289,0.0024199556874709227,-0.7661642915423191,-0.6426086791571024,-0.0024254544982686213,-0.01129567389935269,-0.0010062596984207713,0.0,1.2009682532858392e-15,9.80665
455,170.349,1.0,-0.006960606096506709,0.0032437572963357787,-0.7661327707287394,-0.642636392335957,-0.0033689404148608696,-0.004132343769073985,-0.0022950452505608645,0.0,1.2009682532858392e-15,9.80665
456,170.455,0.9,-0.007052195094120647,0.003432248917593244,-0.7661225030466856,-0.6426467109478535,-0.0031650941856205426,-0.0018758803214877784,-0.003177404839545486,0.0,1.2009682532858392e-15,9.80665
457,170.748,1.0,-0.00680262598961443,0.003460941526854283,-0.766096054039228,-0.6426807384959259,-0.00036898666061493815,0.00193685443140551,-0.002154184952378291,0.0,1.2009682532858392e-15,9.80665
458,170.844,1.0,-0.006616735093011118,0.003367346675489012,-0.7660911515303123,-0.6426890048301364,0.001090786641463364,0.00261729974485921,-0.0020734447389841233,0.0,1.2009682532858392e-15,9.80665
459,170.948,0.75,-0.006410616361398125,0.0032635226447961683,-0.7660858826141663,-0.6426979547692466,0.0025020038662479185,0.0033833891013636593,-0.002028166493400897,0.0,1.2009682532858392e-15,9.80665
460,171.253,1.0,-0.005474140760500181,0.0027726293842466956,-0.7660806382024791,-0.6427150056567345,-0.0018654425907881145,0.007316856738179582,-0.003101980285719381,0.0,1.2009682532858392e-15,9.80665
461,171.353,0.8,-0.00509087889241984,0.002550995068160194,-0.766089309162176,-0.6427086924428245,-0.0014536439254880093,0.00861492576077576,-0.0017895534820855123,0.0,1.2009682532858392e-15,9.80665
462,171.455,0.1111111111111111,-0.0047013788355628845,0.0023216843937580297,-0.7660964996733549,-0.6427041332727358,-0.0010479441350325928,0.009676494322717185,-0.0006085031535476458,0.0,1.2009106068096815e-15,9.806179280799999
463,171.846,1.0,-0.0033636621911027503,0.0013827495840060453,-0.7660651657287402,-0.6427524624567725,-0.0004699566310737217,0.006052822630852544,-0.0015785705049056035,0.0,1.2005022776035643e-15,9.8028450198
464,172.261,1.0,-0.0022990985576775993,0.0004943437905228214,-0.766053213619431,-0.6427727832109631,-0.001338679232634525,0.004939362697303359,0.0002460306864233918,0.0,1.2009682532858392e-15,9.80665
465,172.353,0.09090909090909091,-0.0021042641610466463,0.00033456168588703156,-0.7660539734015602,-0.642772636285312,-0.0017825128464028074,0.0045795668289065495,-0.0009342266153543756,0.0,1.2009682532858392e-15,9.80665
466,172.749,1.0,-0.001555708652922007,-0.00018818042016739532,-0.7660673414836459,-0.6427583982423297,0.0017809341754764193,0.001986185756046383,0.00131474139634527,0.0,1.2009682532858392e-15,9.80665
467,172.856,0.14285714285714285,-0.0014788617072410393,-0.000280744034252904,-0.7660615092209812,-0.6427654941015315,0.0019666317850351193,0.0011318827059586239,0.00025319989072166804,0.0,1.2009682532858392e-15,9.80665
468,173.148,1.0,-0.0013820705089621285,-0.0004485048100266523,-0.7660360509853362,-0.6427959668411544,0.0005065774696413922,-0.0005132226909044834,-0.0005995334631297733,0.0,1.2009682532858392e-15,9.80665
469,173.348,1.0,-0.001372605320766402,-0.0004922053323624613,-0.766037444283376,-0.6427942962111486,0.0012157468898092813,-0.0012169915393719396,-0.0007364682505361863,0.0,1.2009682532858392e-15,9.80665
470,173.65,1.0,-0.0014279562710359014,-0.000448883715273133,-0.7660166356559791,-0.6428190038003755,0.0036436720636203184,-0.0012193265912749903,-0.003338317446173347,0.0,1.2009682532858392e-15,9.80665
471,173.948,1.0,-0.0015017175985246128,-0.00036010993333992423,-0.7660166406287033,-0.6428188866168607,0.003685309914460432,-0.0027844474396581764,0.0005129731078372433,0.0,1.2009682532858392e-15,9.80665
472,174.056,0.6666666666666666,-0.0015634989335397433,-0.000323006886395198,-0.7660258007690453,-0.6428078379972261,0.0025866785157754877,-0.002447750731689225,0.001708047921502032,0.0,1.2009682532858392e-15,9.80665
473,174.154,0.5833333333333334,-0.0016195597745719808,-0.00028933930676017515,-0.7660341127482444,-0.6427978123979279,0.0015897722465986015,-0.002142229644828569,0.0027924676598272795,0.0,1.2009682532858392e-15,9.80665
474,174.451,1.0,-0.0017386119372499811,-0.00021168063560414812,-0.7659981530534269,-0.6428403856258648,0.001646048682534406,-0.001008399710368319,-0.004283167981742536,0.0,1.2009682532858392e-15,9.80665
475,174.657,1.0,-0.0018432556908111143,-0.00017938196100834286,-0.7660057860065754,-0.6428310073532402,0.002045391111442396,-0.0013638589981762577,-0.0037100831582116385,0.0,1.2009682532858392e-15,9.80665
476,174.755,0.75,-0.00187959354547012,-0.0001664696272031035,-0.7660074349256181,-0.6428289412991454,0.0017649037685252954,-0.0015773738968174898,-0.0034908371160300234,0.0,1.2009682532858392e-15,9.80665
477,174.952,1.0,-0.0019382271727967956,-0.00014334780245570718,-0.7660087778692967,-0.6428271733751286,0.00069366909936082,-0.001982149891322553,-0.0031063042553141954,0.0,1.2009682532858392e-15,9.80665
478,175.057,0.8181818181818182,-0.001961771082722338,-0.00013471033311862805,-0.7660100652284614,-0.642825569175385,-0.00018076279293725687,-0.0014212219542825023,-0.0029204108398408124,0.0,1.2009682532858392e-15,9.80665
479,175.459,1.0,-0.0019458467968590499,-0.00011797838211639719,-0.7660235457133728,-0.6428095574439258,-0.002161757248070306,0.00023935736903427245,-0.0012518544051357886,0.0,1.2009682532858392e-15,9.80665
480,175.553,0.3333333333333333,-0.001948003514854351,-0.00011440970035646565,-0.7660189723655672,-0.6428150014161006,-0.0017655494988110857,-0.00018888854446782918,-0.000842977104270297,0.0,1.2009682532858392e-15,9.80665
481,175.748,1.0,-0.001954381197406343,-0.0001065251802322388,-0.7660084453391551,-0.6428275278350966,-0.0011434816429770126,-0.0008341968589560784,-0.0006698995196388411,0.0,1.2009682532858392e-15,9.80665
482,176.246,1.0,-0.001958563525138218,-8.653969255742342e-05,-0.7660252844381752,-0.642807451044432,-0.000886125668883341,-0.0008042738093061717,0.0018315769955510699,0.0,1.2009682532858392e-15,9.80665
483,176.353,0.6666666666666666,-0.0019460867682523292,-5.5764908741044854e-05,-0.766021514080478,-0.6428119850818212,-0.0009750966345891524,-2.8879238758089572e-05,-0.0008088531363760459,0.0,1.2009682532858392e-15,9.80665
484,176.454,0.5,-0.0019365314978641499,-3.0182576575177244e-05,-0.7660186017903754,-0.6428154872167274,-0.000994130249600748,0.0005624559661372177,-0.002872724765911347,0.0,1.2009682532858392e-15,9.80665
485,176.649,1.0,-0.001957119660752599,-4.169956552907246e-05,-0.7660243401682679,-0.6428085858628477,0.00011021873098805181,-0.0007657380565070467,0.0006709678890185842,0.0,1.2009682532858392e-15,9.80665
486,176.851,1.0,-0.00197997843257607,-4.105688071372727e-05,-0.7660279961507283,-0.6428041590596484,-8.349982090297413e-05,-0.0009108949170913434,0.0033786659715698457,0.0,1.2009682532858392e-15,9.80665
487,177.057,1.0,-0.0019677703378630836,-6.736268899103313e-05,-0.7660266720308044,-0.6428057711624006,0.000746571219088373,-0.0006422544140795437,0.0031826370956925644,0.0,1.2009682532858392e-15,9.80665
488,177.242,1.0,-0.0019381294437962554,-0.00010875617867540745,-0.7660260446091162,-0.6428066042901077,0.0018798245319856556,-0.00038609551448908847,0.0014234382716465893,0.0,1.2009682532858392e-15,9.80665
489,177.548,1.0,-0.001934272470253238,-0.00016480194077662713,-0.766033676784231,-0.6427975080964328,0.002019095881118536,-8.134658479009354e-05,-0.0002564176336390888,0.0,1.2009682532858392e-15,9.80665
490,177.639,0.6666666666666666,-0.0019369809868576432,-0.00018787414563159918,-0.7660303713948197,-0.6428014329261266,0.002899458503862816,1.669980435303696e-05,-0.001146648945546762,0.0,1.2009682532858392e-15,9.80665
491,177.756,0.6363636363636364,-0.0019326738245465244,-0.00021460644481310128,-0.766026502981872,-0.642806047588607,0.003372484168037761,-0.0003699784781784672,-0.0019223111867905116,0.0,1.2009682532858392e-15,9.80665
492,177.948,1.0,-0.0019150975665655206,-0.000252916444782089,-0.7660208335522722,-0.6428128428810441,0.0031637275218962205,-0.0017284443741664593,-0.002659527726471504,0.0,1.2009682532858392e-15,9.80665
493,178.046,1.0,-0.0019260741353341797,-0.00024151948783282442,-0.766020903727673,-0.6428127305564367,0.002436897628940613,-0.0018820486217737261,-0.003069183440879003,0.0,1.2009682532858392e-15,9.80665
494,178.152,0.6,-0.0019379467505329347,-0.00022919216705096553,-0.7660209796316777,-0.6428126090624737,0.001650734683498752,-0.002048191991634665,-0.0035122804380953243,0.0,1.2009682532858392e-15,9.80665
