,time,img_sim,orientation.x,orientation.y,orientation.z,orientation.w,angular_velocity.x,angular_velocity.y,angular_velocity.z,linear_acceleration.x,linear_acceleration.y,linear_acceleration.z
0,270.246,0.9809322033898306,-0.002606362235823668,0.000727737584113388,-0.7006453583584699,-0.7135045613621791,0.0012402295833453536,-0.001265660277567804,-0.0011730744736269114,0.0,-0.0196132999999988,9.80665
1,270.38,0.9957627118644068,-0.0026073359356342625,0.000727401264396446,-0.700640963432963,-0.7135088737394865,0.0012478014091029726,-0.0012396292630583177,-0.0011754871290177093,-0.0021182363999989653,-0.017495063599999833,9.80665
2,270.486,0.9957627118644068,-0.002609247272299504,0.0007267410812483744,-0.700632336356968,-0.7135173387764232,0.0012626646226271943,-0.0011885313456878222,-0.0011802230821922404,-0.006276255999998751,-0.013337044000000048,9.80665
3,270.583,0.9957627118644068,-0.0026111149232141695,0.0007261467958850757,-0.7006244149164943,-0.7135251109710562,0.0012749701496213672,-0.001147714736405762,-0.0011844724365510045,-0.009532063799999805,-0.010081236199998995,9.80665
4,270.68,1.0,-0.002614507399786971,0.0007256790826468415,-0.7006161482352071,-0.7135332160017279,0.0012706164764240391,-0.001183305628597731,-0.0011876354962587349,-0.005727083600000589,-0.013886216399998211,9.80665
5,270.786,0.9957627118644068,-0.002618214642227353,0.0007251679733349568,-0.7006071145422541,-0.7135420730455547,0.0012658588541671642,-0.0012221987685188578,-0.0011910920357331625,-0.0015690640000008034,-0.018044235999997996,9.80665
6,270.886,0.9957627118644068,-0.002618332905022541,0.0007238277418267413,-0.7005993535255945,-0.7135496942178577,0.0012717996584251526,-0.0012339376518502832,-0.0011970830196514726,0.0,-0.0196132999999988,9.80665
7,270.984,0.9957627118644068,-0.002616241100549288,0.000721953720379454,-0.7005922451349208,-0.71355668307416,0.0012844353429973072,-0.0012291392888873838,-0.0012047378476709094,0.0,-0.0196132999999988,9.80665
8,271.086,1.0,-0.0026142494504383697,0.0007200578170698881,-0.7005847598806939,-0.7135640415603234,0.0012975953705608833,-0.0012252072803676124,-0.0012119534099474547,0.0,-0.0196132999999988,9.80665
9,271.178,0.9957627118644068,-0.0026139926296848874,0.0007188009326727508,-0.700577288826156,-0.7135713787353307,0.0013095365688204734,-0.0012304749898612488,-0.0012122238641604779,0.0,-0.0196132999999988,9.80665
10,271.28,0.9957627118644068,-0.0026137078936321135,0.0007174074304063596,-0.7005690057004725,-0.7135795134293604,0.0013227757234126267,-0.001236315276473758,-0.0012125237155705686,0.0,-0.0196132999999988,9.80665
11,271.384,1.0,-0.0026150139119087757,0.000717062938638279,-0.7005606086559215,-0.7135877528182085,0.0013179863488353178,-0.0012391249790949669,-0.0012057490739787347,-0.0022481648221342305,-0.0196132999999988,9.80665
12,271.486,1.0,-0.002617536527816485,0.000717562299740173,-0.700552410815184,-0.7135957911240209,0.0012990636364538486,-0.0012394342288050964,-0.0011935972359230244,-0.006201833992093973,-0.0196132999999988,9.80665
13,271.583,1.0,-0.00261998943535167,0.0007179649608141484,-0.7005445819883821,-0.7136034674886226,0.0012814185634675988,-0.0012397541525593452,-0.0011839471746146024,-0.00964847822580569,-0.0196132999999988,9.80665
14,271.686,0.9957627118644068,-0.0026239259764906067,0.0007166095128929315,-0.7005354581208385,-0.7136124110060884,0.0012713242622633158,-0.0012407316427279803,-0.0012207582349806271,-0.0055755550403235685,-0.0196132999999988,9.80665
15,271.79,1.0,-0.002627900736475556,0.0007152409052831578,-0.7005262456720566,-0.713621441353821,0.0012611319581347106,-0.0012417186230924285,-0.0012579266842822766,-0.0014630889112894965,-0.0196132999999988,9.80665
16,271.886,0.9957627118644068,-0.002628674197282291,0.0007147571599309602,-0.7005180737354018,-0.7136294608616763,0.0012643561017629077,-0.0012322528620781067,-0.0012396457247933076,0.0,-0.0196132999999988,9.80665
17,271.992,1.0,-0.002627523223239346,0.0007147628428323454,-0.700509280351184,-0.7136380967858599,0.0012766633338602933,-0.0012146157228324758,-0.0011830446890098742,0.0,-0.0196132999999988,9.80665
18,272.086,1.0,-0.002626604773919594,0.0007147022348419535,-0.7005014692834703,-0.7136457676274317,0.0012863364611120215,-0.001197954973142329,-0.001141292729833927,0.0,-0.0196132999999988,9.80665
19,272.206,0.9957627118644068,-0.0026268351710610305,0.0007137239551484663,-0.700491317094568,-0.7136557326831133,0.001281656677382118,-0.001162684384647404,-0.0012038372682377733,0.0,-0.0196132999999988,9.80665
20,272.286,0.9957627118644068,-0.0026269887691553217,0.0007130717686861417,-0.7004845489686331,-0.7136623760535676,0.0012785368215621831,-0.001139170658984126,-0.0012455336271736612,0.0,-0.0196132999999988,9.80665
21,272.378,0.9957627118644068,-0.002627947292101845,0.0007129668633834225,-0.7004769925260278,-0.7136697894562315,0.0012772917657731526,-0.001156858548645414,-0.0012581823646169497,0.0,-0.0196132999999988,9.80665
22,272.477,1.0,-0.002629655146776291,0.0007134120532983831,-0.7004690574274337,-0.7136775710024137,0.001277978690509426,-0.0012145865630044063,-0.0012412540508007848,0.0,-0.0196132999999988,9.80665
23,272.579,0.9957627118644068,-0.002631527167022651,0.0007138512720896504,-0.7004608838761104,-0.7136855859755004,0.0012782878048562154,-0.001271816513656949,-0.0012248962365306025,0.0,-0.0196132999999988,9.80665
24,272.686,0.9957627118644068,-0.0026373824057542372,0.0007136383020112392,-0.7004523790621058,-0.7136939115350927,0.0012648125676312098,-0.0012540522414589898,-0.0012452440536710782,0.0,-0.0196132999999988,9.80665
25,272.782,0.9957627118644068,-0.0026426357040554753,0.0007134472260530385,-0.7004447485747746,-0.7137013811960353,0.0012527226351676498,-0.0012381142028514702,-0.0012635000391429123,0.0,-0.0196132999999988,9.80665
26,272.886,0.9957627118644068,-0.0026453330816220907,0.000713278375267926,-0.7004365845735261,-0.7137093836456933,0.001269415124785165,-0.0012403073972091123,-0.001244872543029475,0.0,-0.017298930599997785,9.80665
27,272.971,1.0,-0.0026456714882148414,0.0007131641526573331,-0.7004299758807038,-0.713715868203621,0.0013016281733289382,-0.0012542303251102578,-0.0012057077279314372,0.0,-0.013964669599998585,9.80665
28,273.086,0.9957627118644068,-0.002646121931417804,0.0007130119272475739,-0.700421002005526,-0.713724673507732,0.001338040741922497,-0.0012704809421761748,-0.0011597872309556108,0.0,-0.010155503162054718,9.80665
29,273.181,0.9957627118644068,-0.0026464220287706485,0.000712908661240862,-0.7004132706259969,-0.7137322595631108,0.0012983624315397345,-0.0012587421824934763,-0.0011906129498542677,0.0,-0.013837842094860102,9.80665
30,273.286,1.0,-0.0026467537153185296,0.0007127945251281805,-0.7004047254170436,-0.7137406441506348,0.0012545074569061336,-0.001245767763896803,-0.0012246834812685893,0.0,-0.017907795652173285,9.80665
31,273.39,1.0,-0.0026492040195228725,0.0007128408687266897,-0.70039576119663,-0.7137494315780526,0.0012487897253875804,-0.0012486433674839424,-0.0012503729485177303,0.0,-0.0196132999999988,9.80665
32,273.486,0.9957627118644068,-0.002652902118316765,0.000712991544030331,-0.7003871478031143,-0.7137578697956195,0.0012690450712836451,-0.001261943371977701,-0.001268632616006195,0.0,-0.0196132999999988,9.80665
33,273.597,1.0,-0.002657392669153665,0.0007129503913247336,-0.7003771266488653,-0.7137676865418409,0.0012862386549430294,-0.0012653720304257854,-0.0012824383735409934,0.0,-0.018904385542168473,9.80665
34,273.681,0.9957627118644068,-0.002661630084761811,0.000712077167430066,-0.7003693009788893,-0.7137753502489571,0.001274904335781664,-0.0012212453328679005,-0.0012643163285992432,0.0,-0.015596118072288388,9.80665
35,273.772,0.9957627118644068,-0.0026662206183373036,0.0007111311748775093,-0.7003608231697486,-0.7137836525983332,0.0012626254900235177,-0.0011734414105135228,-0.0012446841132456796,0.0,-0.012012161646584776,9.80665
36,273.886,0.9957627118644068,-0.00266885514626484,0.0007105943449001428,-0.7003509867943384,-0.7137932946050518,0.001248375448700139,-0.0011655744910608434,-0.001239374854690271,0.0,-0.0098066499999988,9.80665
37,274.006,1.0,-0.0026684611825174747,0.0007106881089396153,-0.7003414297003532,-0.7138026729539645,0.0012345261482536653,-0.0012101625164109254,-0.0012533861058745713,0.0,-0.0098066499999988,9.80665
38,274.085,0.9957627118644068,-0.0026682375811149356,0.0007107466394966331,-0.7003351182860496,-0.7138088661742885,0.001227097899694482,-0.0012390469365870028,-0.0012613457485256782,0.0,-0.0098066499999988,9.80665
39,274.188,0.9957627118644068,-0.0026688201990587262,0.0007107447863295791,-0.7003264088490557,-0.7138174087948189,0.00125870767835648,-0.0012652322231426147,-0.0012408129730439095,0.0,-0.0098066499999988,9.80665
40,274.28,1.0,-0.002669340595668714,0.0007107431310735696,-0.7003186295461098,-0.713825039096652,0.0012869416554137912,-0.0012886210227845145,-0.0012224730182446649,0.0,-0.0098066499999988,9.80665
41,274.406,1.0,-0.002673491471685528,0.0007104959342162755,-0.7003083300961027,-0.7138351281881659,0.0013211344731971699,-0.0013004010915756226,-0.001215147821232677,0.0030596748000012307,-0.01286632480000003,9.80665
42,274.486,1.0,-0.0026774703073183847,0.0007102432847337493,-0.7003019293953309,-0.7138413928696743,0.0013410955471918026,-0.0012999674677848818,-0.0012174488212913278,0.006197802800000606,-0.016004452799999406,9.80665
43,274.579,1.0,-0.0026820865253894145,0.0007099562198345005,-0.7002944857234848,-0.713848678387482,0.00136359311966224,-0.0012992686722427542,-0.0012198840966448116,0.009767423399998698,-0.019574073399997498,9.80665
44,274.686,1.0,-0.0026864261343664537,0.000710328794439702,-0.7002856190659444,-0.7138573597332888,0.0013146232189610583,-0.0012778549566864962,-0.0011973205022513856,0.0055701771999998395,-0.015376827199998638,9.80665
45,274.785,0.9957627118644068,-0.0026904412865975487,0.0007106735129996552,-0.7002774153360706,-0.713865392006512,0.0012693146192468473,-0.0012580422665923734,-0.001176443905569602,0.0016867437999980202,-0.01149339379999682,9.80665
46,274.9,0.9957627118644068,-0.00269145453635126,0.0007109322194307261,-0.700268040343335,-0.713874584332122,0.001286211948604338,-0.0012627612090710377,-0.0011956629786729427,0.0,-0.012619712948205707,9.80665
47,274.988,0.9957627118644068,-0.002690561452149786,0.0007110654174381097,-0.7002609370853566,-0.7138815553504775,0.0013309169534697733,-0.0012790466532615799,-0.0012302355946549987,0.0,-0.01605790099601489,9.80665
48,275.081,0.9957627118644068,-0.0026897077528537116,0.0007112037813616141,-0.7002534292809193,-0.7138889230368322,0.0013763674469664657,-0.0012955030174925906,-0.0012661399608477955,0.0,-0.0196132999999988,9.80665
49,275.181,1.0,-0.0026931993007398205,0.0007112350351096216,-0.7002453097840672,-0.7138968740191444,0.0013374401656910872,-0.0012762897396460225,-0.0012737968759611229,0.0,-0.0196132999999988,9.80665
50,275.283,0.9957627118644068,-0.0026967606795836535,0.0007112669139325894,-0.7002370278972779,-0.7139049840211027,0.0012977343387901752,-0.00125669219624251,-0.0012816069293767217,0.0,-0.0196132999999988,9.80665
51,275.399,0.9957627118644068,-0.002700822760274423,0.0007113000137553047,-0.7002271950896338,-0.71391461300392,0.001276353309448395,-0.0012437811690486147,-0.0012630883591353093,0.0,-0.0196132999999988,9.80665
52,275.483,1.0,-0.002703769922670215,0.0007113224814736629,-0.7002198776827234,-0.7139217788410643,0.0012721839335022706,-0.0012388936657872472,-0.0012366394577030535,0.0,-0.0196132999999988,9.80665
53,275.599,0.9957627118644068,-0.0027081629047654757,0.0007115043402663796,-0.7002098105878388,-0.7139316358736997,0.0012713141453963074,-0.0012339997816936013,-0.001204675496292993,0.0,-0.0189015270161289,9.80665
54,275.686,0.9957627118644068,-0.0027127769302718583,0.0007122566314637694,-0.7002024150070865,-0.7139388708386504,0.0012906208172470495,-0.0012379060964092538,-0.0011993254325540395,0.0,-0.015461290927419522,9.80665
55,275.787,1.0,-0.002718133442641338,0.0007131299810147622,-0.7001938293328797,-0.7139472700508346,0.0013130343098553849,-0.001242441013492943,-0.0011931144390180124,0.0,-0.011467453629032308,9.80665
56,275.886,0.9957627118644068,-0.0027191484221932207,0.0007140584162586927,-0.7001855723973747,-0.7139553630353309,0.001313275604974476,-0.001231941707897928,-0.0011876934128813436,0.0,-0.012042566199999442,9.80665
57,275.999,0.9957627118644068,-0.002716744731715554,0.0007151790197796172,-0.7001762813091112,-0.713964482814909,0.0012952765543013786,-0.0012073887651786175,-0.0011820667330175627,0.0,-0.016475171999999424,9.80665
58,276.086,1.0,-0.002715157352423607,0.0007159623566429082,-0.7001690837914947,-0.7139715466280426,0.0012831659773364667,-0.0011916705761104837,-0.0011798533550463628,0.0,-0.0196132999999988,9.80665
59,276.195,1.0,-0.002716937921609872,0.0007158064747752668,-0.7001594333049892,-0.7139810036551558,0.0012930088918656098,-0.0012175880549475519,-0.001207416530698534,0.0,-0.0196132999999988,9.80665
60,276.287,1.0,-0.0027184407873450684,0.0007156749047585419,-0.7001512879402323,-0.7139889857330863,0.001301316672936079,-0.0012394633581861785,-0.0012306808624416511,0.0,-0.0196132999999988,9.80665
61,276.389,1.0,-0.0027213639703396494,0.0007158510088924747,-0.7001429406537174,-0.7139971598258513,0.0013005445711314677,-0.0012309946352615949,-0.0012333815312013025,0.0,-0.01725970399999871,9.80665
62,276.486,1.0,-0.002724980602592991,0.0007162328149684447,-0.7001354575071884,-0.7140044834885954,0.0012931648362427964,-0.0012011586083099303,-0.0012205775240436217,0.0,-0.013454723799999495,9.80665
63,276.606,0.9957627118644068,-0.002729913075301075,0.0007166375860164064,-0.7001256389347351,-0.7140140920038397,0.0012932516522223168,-0.0011813824957392454,-0.0012118303192875878,0.0,-0.010861548605576072,9.80665
64,276.661,0.9957627118644068,-0.0027328972936751825,0.0007167164388084219,-0.7001202529898927,-0.7140193615318633,0.0013078413838780382,-0.0011993686420902379,-0.0012190186198748855,0.0,-0.013010416135457021,9.80665
65,276.776,1.0,-0.0027391370230028613,0.0007168813128280907,-0.7001089914688585,-0.7140303796359124,0.0013383471864309084,-0.0012369760390059479,-0.0012340487029210531,0.0,-0.01750350278884425,9.80665
66,276.886,0.9957627118644068,-0.0027422629642626724,0.0007168042675535819,-0.7000989404177002,-0.7140402227160281,0.0013431867531712197,-0.0012467990423445045,-0.0012399677485895456,-0.002187937848606852,-0.0196132999999988,9.80665
67,277.006,0.9957627118644068,-0.0027426829244089537,0.0007164732724548748,-0.700088733919302,-0.7140502284910833,0.00132286197374171,-0.0012300073519809246,-0.001237527980279935,-0.006876376095616141,-0.0196132999999988,9.80665
68,277.086,1.0,-0.0027430368952092877,0.0007162500583473379,-0.7000819213036739,-0.7140569068217215,0.0013101449372792937,-0.0012195059229212115,-0.0012346846514370256,-0.009609729317269229,-0.01941637931726803,9.80665
69,277.185,0.9957627118644068,-0.0027448485102456724,0.0007159264833646106,-0.7000733369319119,-0.7140653163020454,0.001309866760763897,-0.001219374795788413,-0.0012085788731788657,-0.0057106997991968325,-0.015517349799195633,9.80665
70,277.286,0.9957627118644068,-0.002746696723565621,0.0007155963715135454,-0.7000645791384981,-0.7140738956708608,0.0013095829645209164,-0.0012192410196226286,-0.0011819457054609423,-0.0017329020080316792,-0.011539552008030479,9.80665
71,277.395,1.0,-0.0027489417594364807,0.0007159172966641472,-0.7000558196045134,-0.7140824742819886,0.0013035419699735941,-0.001232807268388569,-0.001201950933318584,0.0,-0.0098066499999988,9.80665
72,277.486,1.0,-0.002750957582521935,0.0007165679274197978,-0.7000488976438088,-0.7140892517720325,0.0012952576652169223,-0.0012518816068768516,-0.0012462018476799158,0.0,-0.0098066499999988,9.80665
73,277.606,1.0,-0.00275412388699551,0.0007171001094184252,-0.7000395878185232,-0.7140983657501089,0.0012874343348667028,-0.0012700361143797633,-0.0012934626117348674,0.0,-0.01082654159999921,9.80665
74,277.686,0.9957627118644068,-0.0027574593506324535,0.0007166696536565977,-0.7000329426859868,-0.7141048674556305,0.0012896930528804658,-0.0012652710210531955,-0.0012982350066304202,0.0,-0.013964669599998585,9.80665
75,277.794,1.0,-0.002761962226542328,0.0007160885383781304,-0.7000239717570625,-0.7141136447580848,0.0012927423221990467,-0.0012588381450623278,-0.0013046777397394177,0.0,-0.018201142399998746,9.80665
76,277.886,0.9957627118644068,-0.0027626190714077387,0.0007150545887847298,-0.7000166824264237,-0.7141207886813865,0.0012744637755676966,-0.0012665575947612597,-0.001290289558470237,0.0,-0.0196132999999988,9.80665
77,277.981,1.0,-0.0027611870926887152,0.0007136291740069646,-0.7000093894443742,-0.7141279444814332,0.0012417312376201118,-0.0012832907279953381,-0.0012622378244996038,0.0,-0.0196132999999988,9.80665
78,278.081,0.9957627118644068,-0.002759700265216089,0.0007121364625076539,-0.7000017032851626,-0.7141354859621082,0.00120796478027479,-0.0013004868431016725,-0.001232947126496581,0.0,-0.0196132999999988,9.80665
79,278.201,1.0,-0.0027603536756798763,0.0007112629516414828,-0.6999913707771185,-0.7141456120162117,0.001249279907438917,-0.0012714983103796751,-0.0012260065195150648,0.0,-0.0196132999999988,9.80665
80,278.286,0.9957627118644068,-0.0027608165080917255,0.0007106442147779451,-0.6999840519172539,-0.7141527846378684,0.0012785447891801656,-0.001250964766368266,-0.0012210902562364923,0.0,-0.0196132999999988,9.80665
81,278.386,0.9957627118644068,-0.002763628416688753,0.0007098148118674708,-0.699975785756562,-0.7141608766341513,0.0013059457964393793,-0.001244713254532672,-0.0012093324346868525,0.0,-0.0196132999999988,9.80665
82,278.486,1.0,-0.002768221853760723,0.0007089056768801889,-0.6999677900879745,-0.7141686964730413,0.0013278245951876427,-0.0012525304274418312,-0.0011928807698242182,0.0,-0.0196132999999988,9.80665
83,278.586,0.9872881355932204,-0.002772832957130411,0.0007080679124569559,-0.6999597231270881,-0.7141765860155103,0.00134801552630961,-0.0012596575263887648,-0.0011797327548265432,0.0,-0.0196132999999988,9.80665
84,278.687,0.989406779661017,-0.0027778291877869625,0.0007085913715136013,-0.6999502073973777,-0.7141858920650853,0.0013360181869938976,-0.0012536133769899612,-0.0012298503005877108,0.0,-0.0196132999999988,9.80665
85,278.777,0.9936440677966102,-0.0027822812745106214,0.0007090578201779386,-0.6999417280342695,-0.7141941845845087,0.0013253274885937608,-0.0012482275012880583,-0.0012745094997808184,0.0,-0.0196132999999988,9.80665
86,278.886,0.989406779661017,-0.002785089366170286,0.0007094622569891676,-0.6999322596366695,-0.7142034526148299,0.0013244861294515438,-0.0012447864236310125,-0.0012983420398086304,0.0,-0.01745583699999853,9.80665
87,278.978,0.9872881355932204,-0.002785318261543795,0.0007096706246321062,-0.6999249317869312,-0.7142106328278732,0.0013338083387352518,-0.0012444358998909596,-0.0012933857832103971,0.0,-0.013846989799999139,9.80665
88,279.086,0.9978858350951374,-0.002785752203296658,0.0007098459995907376,-0.6999162763244845,-0.7142191133105622,0.0013441539905034007,-0.0012444697297178207,-0.0012883324199356133,0.0,-0.0098066499999988,9.80665
89,279.206,0.989406779661017,-0.0027900164861989238,0.000708456250626758,-0.6999054413622161,-0.7142297156924557,0.0013419659226201475,-0.0012547000660561027,-0.0013002241612412033,0.0,-0.0098066499999988,9.80665
90,279.284,0.9449152542372882,-0.0027927882700853955,0.0007075529138001715,-0.6998983986367415,-0.7142366072406864,0.0013405436784960335,-0.0012613497846759836,-0.0013079537930898342,0.0,-0.0098066499999988,9.80665
91,279.388,0.991578947368421,-0.0018420066098181831,0.0005410657054452477,-0.6999009780729116,-0.7142350714008538,-0.010233412478720273,0.01786705032904266,-0.0012466466633625666,0.0,-0.012024820833330474,9.80665
92,279.486,0.9809725158562368,-0.00020445783616325312,0.00025576038577749047,-0.6999127090678778,-0.7142252912769603,-0.030131021567654258,0.050761364110723274,-0.0011332336215428447,0.0,-0.015838518055553065,9.80665
93,279.592,0.5106382978723404,0.0016409234453615296,-0.00010590556486656364,-0.6999241154335887,-0.7142142696376825,-0.04795029748939927,0.08036742264203481,-0.0010076691551442647,0.0,-0.018901527016131143,9.852915243951397
94,279.686,0.44776119402985076,0.003986141866253335,-0.0009338566222420339,-0.6999219751034603,-0.7142002603730963,-0.02836386905186004,0.04952916655232779,-0.0008686671719789438,0.0,-0.011467453629034492,10.336130014112676
95,279.78,0.488272921108742,0.006331360287145142,-0.001761807679617504,-0.6999198347733321,-0.7141862511085101,-0.008777440614320814,0.018690910462620766,-0.0007296651888136232,0.0,-0.004033380241937839,10.819344784273955
96,279.886,0.42127659574468085,0.006729922912196183,-0.0019449747097956,-0.6999176760143709,-0.7141870679236817,0.005841426379250513,-0.00771877392316816,-0.0009168220795286552,0.0,1.369364888800921e-15,11.181712880434802
97,279.987,0.5076252723311547,0.005125229193861691,-0.0014564276861913712,-0.6999158442122266,-0.7142025256732221,0.013172534765150325,-0.025491633969674566,-0.0013990013320883113,0.0,1.3918984710078306e-15,11.365713542687775
98,280.086,0.420479302832244,0.0035453401593309774,-0.0009749496162041291,-0.6999140378718245,-0.7142174853706664,0.020217143269556204,-0.04245311867505741,-0.001859835859748609,0.0,1.4133459295604502e-15,11.540845332258057
99,280.194,0.4517543859649123,0.0014529728554190588,-0.0003118596749006301,-0.6999114952884476,-0.7142236487149092,0.020424559682367345,-0.03664813510652896,-0.0017384159483856485,0.0,1.4028858834834437e-15,11.455432574193535
100,280.282,0.4342105263157895,-0.00025191902184177077,0.0002284358328279142,-0.6999094235538442,-0.714228670699107,0.020593565648361536,-0.031918148495137445,-0.0016394812057936494,0.0,1.394362882976257e-15,11.385836993548399
101,280.39,0.43722943722943725,-0.0019162939681674565,0.0006210221325806625,-0.6999218024187376,-0.7142155030482504,0.019547417953610563,-0.026025497734547064,-0.0011548133092001585,0.0,1.3819974039131343e-15,11.284865194400009
102,280.481,0.44789356984478934,-0.003007801908730879,0.0007553259194642354,-0.6999430712946215,-0.7141903665717302,0.017755386628210527,-0.020996714778244448,-0.00048258222825824267,0.0,1.3701942879198402e-15,11.1884854382
103,280.585,0.4057649667405765,-0.00424316099033365,0.0009045027766290256,-0.6999665200315045,-0.7141624472420316,0.0157460287896049,-0.015367034340344336,0.00022702083915519537,0.0,1.3566347917416243e-15,11.07776374940241
104,280.686,0.2939914163090129,-0.005047969845006647,0.0009083546601543034,-0.6999612216351642,-0.7141617536073213,0.015059228993922787,-0.01374147401981666,-0.00100179771063406,0.0,1.3411705312052925e-15,10.951488479282904
105,280.806,0.33760683760683763,-0.006004178385212234,0.0009129311554318616,-0.6999549265107995,-0.7141609294868734,0.014243229236676671,-0.011810115223150024,-0.0024617801460273037,0.0,1.322797152350244e-15,10.801458455378537
106,280.886,0.33974358974358976,-0.0065379186449856215,0.0009147772376944007,-0.6999564446937381,-0.7141547582999448,0.0125972963906973,-0.010243537916192116,-0.0027517509856167764,0.0,1.3107386809024347e-15,10.702993563654614
107,280.986,0.39826839826839827,-0.007139038151073731,0.000916317560005885,-0.6999619816483051,-0.7141434644134773,0.009838177710323184,-0.008107648146933813,-0.0026790619132120315,0.0,1.2957868673073127e-15,10.580902740361466
108,281.086,0.3939393939393939,-0.007732344974508002,0.0009142223524246983,-0.6999681547761227,-0.7141315986351481,0.007192638999526497,-0.006027243747579841,-0.0025739170132255186,0.0,1.2807249856126153e-15,10.457913142828659
109,281.184,0.28761061946902655,-0.00813003136544806,0.0008266613859199068,-0.6999891672362333,-0.7141065192758004,0.007271411947431095,-0.005293463336385319,-0.001707513946520213,0.0,1.2633755398500078e-15,10.316244167131448
110,281.286,0.3440366972477064,-0.008543949853977354,0.000735526502414954,-0.7000110373477769,-0.7140804162691324,0.007353400117699116,-0.004529732704326002,-0.0008057474893374782,0.0,1.2453179534440356e-15,10.168792784262976
111,281.386,0.3119266055045872,-0.00884740501707617,0.0006421448073702678,-0.7000209601903379,-0.7140671604289809,0.006842284994461645,-0.003820254507635403,-0.0006585304272813885,0.0,1.2275390729940782e-15,10.023617208232926
112,281.486,0.3438914027149321,-0.009060099387686302,0.0005451859954978977,-0.7000206685643419,-0.7140648434777775,0.00580663596425806,-0.0031456071462662855,-0.001164762080220579,0.0,1.2096933599934488e-15,9.877895903012073
113,281.587,0.386046511627907,-0.009264594125901667,0.00044598794091713995,-0.700248486241878,-0.7138353319350648,0.004713009781546593,-0.0024649007439157167,-0.001625915529140156,0.0,1.1917782353476527e-15,9.731607808695658
114,281.675,0.36363636363636365,-0.00927001743266197,0.0003383182656918651,-0.7042630046793444,-0.7098350759908464,0.0029635149801491433,-0.0018833098802419537,-0.001188926222060395,0.0,1.1779932084403674e-15,9.619044521739102
115,281.784,0.42657342657342656,-0.009276734937626433,0.00020495469069698005,-0.7092355331984769,-0.704880213514487,0.000796527101146422,-0.0011629302877372634,-0.0006476553757913794,0.0,1.1609185728393056e-15,9.479619541304336
116,281.886,0.35909090909090907,-0.009765992354988345,7.447478873858618e-05,-0.7115581670072415,-0.7025586552119587,0.004602403699183344,-0.0050679824639876785,-0.00019247293464765512,0.0,1.1452733505397033e-15,9.351866606249958
117,281.98,0.43648960739030024,-0.01066196785048859,-5.1006790131644255e-05,-0.7115508643060151,-0.7025527052828273,0.01348593518243185,-0.01288677439856014,0.00017970674783897213,0.0,1.1311619735635981e-15,9.236638468749987
118,282.083,0.32682926829268294,-0.011643728233856022,-0.00018850256272351268,-0.7115428624099904,-0.7025461856796301,0.023220017552375793,-0.02145417407155037,0.0005875206552445915,0.0,1.1156995073025444e-15,9.11037785
119,282.187,0.4121951219512195,-0.011605168183958207,-0.00024280213830994347,-0.7115349647916586,-0.7025548011217382,0.007630692571403846,-0.005942268103363369,-0.0004905389137564527,0.0,-0.0040795663999983155,8.951274760400024
120,282.286,0.491566265060241,-0.011568461982613168,-0.0002944911573777979,-0.7115274468665157,-0.7025630023598989,-0.007209145631637333,0.008823873154815212,-0.0015167686957863321,0.0,-0.007962999799997924,8.79982085780004
121,282.393,0.4302600472813239,-0.010746537854603765,-0.0003493348445128312,-0.7115229671005605,-0.702579108908218,-0.015343466512857878,0.01659767113625934,-0.0017411797400566364,0.0,-0.007453054000001076,8.690260964000034
122,282.486,0.5105386416861827,-0.009499566029601834,-0.00039630675109647123,-0.711521555593094,-0.7025980391065975,-0.017031641524284408,0.01778126618266059,-0.0013338568625041987,0.0,-0.003804980200000388,8.631891783200023
123,282.585,0.4861111111111111,-0.008173394189179568,-0.0004460895186257459,-0.7115200778660025,-0.7026180289554298,-0.018755805263498605,0.018985726560156256,-0.0008761691052033027,0.0,1.0497137776912835e-15,8.571563477911635
124,282.687,0.4742014742014742,-0.006869486438211789,-0.0004864082769282038,-0.7115197968750494,-0.7026305468223991,-0.016888136807155917,0.017453585440913855,0.0007989573209213416,0.0,1.0531575179838397e-15,8.599683751405623
125,282.777,0.45864661654135336,-0.005718979599123256,-0.0005219836519009396,-0.7115195489418555,-0.7026415919991368,-0.015240194051560407,0.016101696218053713,0.002277010049853973,0.0,1.0561961123596228e-15,8.624495757429715
126,282.886,0.46115288220551376,-0.004483438986090669,-0.0005425669968325018,-0.7115240983670631,-0.7026464418301424,-0.013751986303499513,0.014925613201090083,0.0030903908357555886,0.0,1.0647441399845632e-15,8.694295700000028
127,282.978,0.4915254237288136,-0.003576296667136705,-0.0005405955356537418,-0.7115321073758448,-0.7026432047944292,-0.01293228058114876,0.014329438733439535,0.0029372727491020507,0.0,1.0761438068967025e-15,8.787381044444453
128,283.085,0.4721549636803874,-0.0025238585861618525,-0.0005384069378768511,-0.7115412315539905,-0.7026395968079185,-0.011965438428084826,0.013612638790550113,0.0027401604611117306,0.0,1.0893939617064736e-15,8.895576769277085
129,283.197,0.5,-0.001711593632423476,-0.000547688194628823,-0.7115296291556773,-0.7026532206664053,-0.009456794847356757,0.010263472142812933,0.00042247469256464273,0.0,1.102358631043151e-15,9.001441328313243
130,283.281,0.5025380710659898,-0.001102394917119797,-0.0005546491371928008,-0.7115209273569423,-0.7026634385602705,-0.007575312161811024,0.007751597157010471,-0.0013157896338453785,0.0,1.1120821330456576e-15,9.080839747590346
131,283.406,0.5695876288659794,-0.0004655675661444023,-0.0005478430161058457,-0.7114981530168436,-0.7026874790677007,-0.005058639461502539,0.00431244619275402,-0.0030931715150417345,0.0,1.1253784569802101e-15,9.189412471936745
132,283.486,0.5773195876288659,-0.00018096007382695646,-0.0005356618917140482,-0.7114790982088322,-0.7027068929247542,-0.0035770555452923768,0.0022475905928090742,-0.003861734242336516,0.0,1.1333532659348345e-15,9.254531728853731
133,283.587,0.531328320802005,0.00017496531239759438,-0.0005201208315693248,-0.7114554428917987,-0.7027309951870092,-0.0017035181710178676,-0.0003490894497744064,-0.004802783893894928,0.0,1.1433944163369853e-15,9.336523944153212
134,283.686,0.5674300254452926,0.0001914013743295895,-0.000488970020726559,-0.7114715989968935,-0.7027146543398837,0.0004306722511230425,-0.0018945331722793647,-0.002857061895362185,0.0,1.1505856980149262e-15,9.395245215322563
135,283.778,0.549618320610687,0.0002066752904684217,-0.00046002179246861907,-0.7114866127511229,-0.7026994689061913,0.002413960320184384,-0.003330703096224164,-0.001048916199754995,0.0,1.1572685052307943e-15,9.449814477419364
136,283.886,0.5942408376963351,9.939027860829954e-05,-0.0004088611235478976,-0.7114913620103132,-0.7026946768252413,0.003200272612468057,-0.004555057637004596,-0.00016852016336324952,0.0,1.1640951516939916e-15,9.505558276104425
137,283.974,0.662303664921466,-9.790263835468275e-05,-0.000352101109599962,-0.7114839335449203,-0.7027022096701127,0.0024879692500107764,-0.005147643125499885,-0.0005411906644745693,0.0,1.1687639760682091e-15,9.543682120281114
138,284.081,0.696969696969697,-0.00033779288966210175,-0.0002830860926404953,-0.7114749012063178,-0.7027113689246722,0.001621873116113291,-0.005868173208102581,-0.000994324114689765,0.0,1.1744408420686817e-15,9.59003724899598
139,284.193,0.6709183673469388,-0.000778679650429353,-0.00023435655901708492,-0.7114952887935547,-0.702690219535986,0.003704236863009688,-0.0067309190136975346,0.001224743036285447,0.0,1.1782311969527133e-15,9.620987845418318
140,284.286,0.6887755102040817,-0.001147638407409308,-0.00019424858994891893,-0.7115126683088967,-0.7026721939465073,0.005478467578921658,-0.007448944919909565,0.0031080242632274754,0.0,1.1813460588367345e-15,9.646422622908366
141,284.381,0.6080402010050251,-0.0015723752545899227,-0.00014625347964579004,-0.7115181363812125,-0.7026657864308032,0.0071529228258872925,-0.008437145568430011,0.003286634616088653,0.0,1.1840826396446397e-15,9.668768500999994
142,284.486,0.6142131979695431,-0.002095825992988902,-8.52770239132914e-05,-0.7115103127639262,-0.7026722562500948,0.008847942885011222,-0.009816905066370792,0.0015141323767604684,0.0,1.1866046729765404e-15,9.689362465999997
143,284.586,0.5718085106382979,-0.00259402871438152,-2.805900954718624e-05,-0.7115030264408824,-0.7026782350670728,0.01042607656121252,-0.011082087621092689,-0.00014736209064725343,0.0,1.1889873939910598e-15,9.708818859600001
144,284.703,0.601063829787234,-0.003158477599263626,-1.011965212442552e-05,-0.7115039460466482,-0.702674743726967,0.010198801390826759,-0.009760398484766807,-0.0005661661666816925,0.0,1.1906735534186727e-15,9.722587396199996
145,284.779,0.5945273631840796,-0.003525128156965048,1.533263808315088e-06,-0.7115045433974022,-0.702672475847924,0.010051169656217112,-0.00890186537057169,-0.0008382098400033754,0.0,1.1917688364656697e-15,9.731531061
146,284.888,0.6200980392156863,-0.003982306849319539,1.459611137521691e-05,-0.7115031656735931,-0.7026715111523958,0.008580552540720175,-0.007722845885902916,-0.00107333067804573,0.0,1.1930802937982576e-15,9.742239922799998
147,284.981,0.5604113110539846,-0.0043126970527600835,2.256968389152437e-05,-0.7115000484218899,-0.7026726762920916,0.0062318231426181595,-0.006762340808287352,-0.0011392007302492787,0.0,1.1939738141787024e-15,9.7495360704
148,285.086,0.5758354755784062,-0.00468423036207294,3.2482132444531076e-05,-0.7114968820233497,-0.7026736366583617,0.003641934889390766,-0.005700660055488593,-0.0011980116480088115,0.0,1.1949728684623492e-15,9.757693967716536
149,285.187,0.6791044776119403,-0.004967902878114842,8.709801616069095e-05,-0.7115113271200137,-0.7026569687665235,0.0042172658887845845,-0.005806934310299323,-0.00048384389232322754,0.0,1.1954504188307818e-15,9.761593462401574
150,285.286,0.599502487562189,-0.005245958116611333,0.0001406323972290009,-0.7115254861751596,-0.7026406309319496,0.004781204195121045,-0.005911104124420722,0.00021618192760613857,0.0,1.195918512756275e-15,9.765415739370079
151,285.395,0.6532663316582915,-0.005500452972802882,0.0001490796650925226,-0.7115281671973931,-0.7026360006846856,0.005469370060241929,-0.005363308717138816,0.0003815194269500047,0.0,1.1967186733126736e-15,9.771949546153843
152,285.486,0.6331658291457286,-0.0056735854858038365,0.00011767380738686147,-0.7115205741937337,-0.702642308807245,0.00609512412958295,-0.0044014054060224315,5.84649083747767e-05,0.0,1.1976035972887793e-15,9.779175498785424
153,285.589,0.7438423645320197,-0.005864465214224908,8.13016823696355e-05,-0.7115124392535533,-0.7026490230059164,0.006758783675730147,-0.0033341943360864126,-0.0002992549976334271,0.0,1.1985855322713201e-15,9.7871936064
154,285.684,0.7107231920199502,-0.005924476113747979,2.892550365494396e-05,-0.711515421785303,-0.7026454965082315,0.006352519264444511,-0.0028415046147999743,-0.0004480485147797294,0.0,1.199041900207569e-15,9.790920133400002
155,285.806,0.8129675810473815,-0.006001542742609137,-3.833653637861701e-05,-0.711519251983971,-0.7026409677427836,0.005830790231004342,-0.002208787288516741,-0.0006391307157464379,0.0,1.1996279727151722e-15,9.7957057786
156,285.886,0.8029925187032418,-0.005991491503218815,-7.16822435799631e-05,-0.7115244911895757,-0.7026357454968508,0.004720448902658981,-0.0014338031164421502,-0.00033553766570885215,0.0,1.1997672850325534e-15,9.79684335
157,285.988,0.760705289672544,-0.005934750791045218,-0.00010639662255681808,-0.7115331486866641,-0.7026274540246243,0.0027478013602289532,-0.0001846348126585888,0.00036249079220219385,0.0,1.1997672850325534e-15,9.79684335
158,286.086,0.8401015228426396,-0.005880235204839192,-0.00013974965333851482,-0.7115414666740628,-0.7026194877081715,0.000852512544952333,0.0010155464988201859,0.0010331455850973723,0.0,1.1997672850325534e-15,9.79684335
159,286.192,0.6472081218274112,-0.005748291302152943,-0.0001387369898285531,-0.7115432590291213,-0.7026187479258766,2.6243858050532223e-05,0.001129052617650743,0.0014137376495356791,0.0,1.1997672850325534e-15,9.79684335
160,286.286,0.7196029776674938,-0.005631284445053819,-0.0001378389674706625,-0.71154484847606,-0.7026180918925209,-0.0007064849775038865,0.0012297089871797263,0.0017512438198866265,0.0,1.1997672850325534e-15,9.79684335
161,286.406,0.6310432569974554,-0.005450564502176742,-0.00012792842282281422,-0.7115344137554486,-0.7026300704894929,-0.0013628009655513888,0.0008174528335219387,0.0014111978653816451,0.0,1.2001083600164866e-15,9.799628438600001
162,286.486,0.6615776081424937,-0.0053156608326222436,-0.00011728906889580662,-0.7115217227558984,-0.7026439528239227,-0.0016719407909550176,0.0002938179452902886,0.0008298119250684216,0.0,1.200492669857538e-15,9.8027665666
163,286.589,0.5541561712846348,-0.005140999849626069,-0.0001047644088861232,-0.7115061116710103,-0.7026610907903561,-0.002051230635493978,-0.00033989218436174723,5.910058319544169e-05,0.0,1.2009682532858392e-15,9.80665
164,286.686,0.6109660574412533,-0.004953845820507142,-0.00012032176540454628,-0.7115083918270988,-0.7026600862965874,-0.0019719164175912747,6.59289560280403e-06,-0.0011836207546293618,0.0,1.2009682532858392e-15,9.80665
165,286.785,0.5221932114882507,-0.004762832945426871,-0.0001361998921604733,-0.711510718996715,-0.7026590610916068,-0.0018909668549894915,0.0003602219978349042,-0.002451965212822543,0.0,1.2009682532858392e-15,9.80665
166,286.886,0.6036269430051814,-0.004562589526618531,-0.00014199970855493293,-0.7115058500004359,-0.7026653152409249,-0.002266991598021942,0.0009734955626000245,-0.0029382533587824504,0.0,1.2009682532858392e-15,9.80665
167,286.99,0.5501285347043702,-0.004350975486287069,-0.00013747379262438682,-0.7114935242987732,-0.7026791246660145,-0.0031171576665080655,0.0018598875790810571,-0.002623623049455727,0.0,1.2009682532858392e-15,9.80665
168,287.086,0.640506329113924,-0.004155639449057991,-0.00013329602407311273,-0.7114821467280078,-0.7026918718276357,-0.0039019263451107837,0.002678095594294467,-0.002333195071615621,0.0,1.2009682532858392e-15,9.80665
169,287.188,0.5873417721518988,-0.003957835686461146,-0.00011887627817792874,-0.7114762600048351,-0.702698936878487,-0.003360828783363109,0.0023164314222522114,-0.0005162348160520365,0.0,1.2009682532858392e-15,9.80665
170,287.317,0.6290726817042607,-0.003707794076807911,-0.00010051456190081603,-0.7114688926911861,-0.7027077909632532,-0.002659283056855103,0.0018436181033029487,0.0018005732074383184,0.0,1.2009682532858392e-15,9.80665
171,287.402,0.5558375634517766,-0.0035783886772853797,-0.00012842165121972824,-0.7114721203277455,-0.7027051831777329,-0.0010755919385701934,0.0013377966964617525,0.001303901330102265,0.0,1.2009682532858392e-15,9.80665
172,287.486,0.5989847715736041,-0.0034612548663123053,-0.00016816511015893803,-0.7114777675259195,-0.7027000391316619,0.0008304641302675215,0.0007788516292348442,0.0001978579261340081,0.0,1.2009682532858392e-15,9.80665
173,287.581,0.5725190839694656,-0.0033287821039022472,-0.00021311306967353166,-0.71148415423814,-0.7026942214605102,0.0029861227795488082,0.0001467113746328264,-0.0010530244950208798,0.0,1.2009682532858392e-15,9.80665
174,287.686,0.6717557251908397,-0.003211816319909977,-0.00025293240942229103,-0.7114835060146405,-0.7026953970132165,0.0031694894802408668,-0.000363373981665232,-0.001144409458803751,0.0,1.2014457466877478e-15,9.810549029518072
175,287.792,0.6138107416879796,-0.003095538513646304,-0.00029252771500643644,-0.7114823800646553,-0.7026970490977039,0.0032200480953427273,-0.0008667783767738791,-0.0011576668076015155,0.0,1.2019570022493874e-15,9.814723747991966
176,287.886,0.670076726342711,-0.0030085604326810546,-0.00030530490713575454,-0.7114800905616483,-0.7026997438306437,0.002157689057349573,-0.0005470056469880751,-0.0016826304455894226,0.0,1.202169221539125e-15,9.81645665
177,287.998,0.5790816326530612,-0.0029218459519355306,-0.00029710965412451556,-0.7114760089959556,-0.7027042439055693,-0.0002690051604372478,0.0006373563732216465,-0.0028462221616863534,0.0,1.202169221539125e-15,9.81645665
178,288.086,0.701530612244898,-0.0028537131456354385,-0.00029067052675853846,-0.711472802051483,-0.7027077796787252,-0.0021756934744136622,0.0015679265319583715,-0.003760472795763019,0.0,1.202169221539125e-15,9.81645665
179,288.206,0.635678391959799,-0.0026775118080506464,-0.0003500588147422906,-0.7114925789693639,-0.7026883947653612,-0.0009389100180203964,0.007413329524793051,-0.0029442974508376036,0.0,1.2015952648236992e-15,9.811769937751002
180,288.286,0.7368421052631579,-0.0025595776224039196,-0.0003900329054216927,-0.7115058988755365,-0.7026753358795765,-9.289296319617973e-05,0.011335903193322564,-0.0023886237992909293,0.0,1.2012094115696316e-15,9.80861920682731
181,288.389,0.5897435897435898,-0.001039007197633193,-0.0016079201859013738,-0.7115165450329339,-0.7026574345550173,-0.0007849238556809095,0.0356253258436907,-0.0015234890207648588,0.0,1.2012228585555358e-15,9.808729009799999
182,288.486,0.6349614395886889,0.001609022447610259,-0.0037911586190913994,-0.7115207932962516,-0.7026396093940442,-0.003019202733411861,0.07559264600276011,-0.000575746409595244,0.0,1.2016888342378105e-15,9.812533989999999
183,288.578,0.5244215938303342,0.00412055571938765,-0.0058618589887150085,-0.7115248225769242,-0.7026227030558018,-0.005138312596826866,0.11349979501961088,0.00032314348965844543,0.0,1.2021307905550196e-15,9.816142837199997
184,288.686,0.5178571428571429,0.009907568405735194,-0.010795555772522603,-0.711456086025682,-0.7025197711367169,-0.006399500878556918,0.12857437535883443,-0.00021624731986451186,0.0,1.2016926468354402e-15,9.812565122222223
185,288.775,0.4896907216494845,0.014863638860769348,-0.015026291707593255,-0.7113945986637896,-0.7024294701322996,-0.007357957772910135,0.1390570681542108,-0.0007658714021087957,0.0,1.2012684953491608e-15,9.809101662500002
186,288.887,0.49742268041237114,0.020364449423065915,-0.019733414533241886,-0.7112835910591724,-0.7023129448235547,-0.007160287733460502,0.13139479309921917,-0.0015395236499193073,0.0,1.2012055413681414e-15,9.80858760423387
187,288.988,0.49379652605459057,0.02447160600162275,-0.023262915639613833,-0.711144493770894,-0.7022045154015871,-0.005354390644859226,0.10030615179529635,-0.002332255138166789,0.0,1.20169464537452e-15,9.812581441532256
188,289.086,0.5579710144927537,0.02845676783032203,-0.026687580079460375,-0.7110095280852375,-0.7020993066555196,-0.0036021340638399124,0.07014093548059464,-0.003101440146565446,0.0,1.202169221539125e-15,9.81645665
189,289.2,0.5721153846153846,0.030585006883128832,-0.028482854261863085,-0.710943817062657,-0.7019991735144856,-0.002523382482827727,0.05560004013586975,-0.0005511665620298711,0.0,1.2027146812238843e-15,9.82091066633466
190,289.286,0.5547445255474452,0.03219052055454507,-0.029837183908237544,-0.7108942455894821,-0.7019236344782669,-0.0017095874304849082,0.044630592770547026,0.001372724036830991,0.0,1.2031261683544923e-15,9.82427071374502
191,289.398,0.5060827250608273,0.0339302580751084,-0.03135426045989307,-0.7108264301088147,-0.7018460835418914,-0.00042003347398666306,0.03651253026723768,0.0018404652564782413,0.0,1.2039562623000147e-15,9.831048945200003
192,289.486,0.46958637469586373,0.03506651202064866,-0.032384188765268114,-0.7107710067794055,-0.7017988311034734,0.0007440977017395319,0.034185687482357,0.0008693338311277186,0.0,1.2048017439503277e-15,9.8379528268
193,289.592,0.4292803970223325,0.036399970485061627,-0.03359529364283606,-0.7107057999244981,-0.7017432440983132,0.0021488326368852826,0.03080672627780651,-0.00025703047867863676,0.0,1.2057961456640484e-15,9.846072733
194,289.697,0.4502487562189055,0.03701629575487309,-0.034204883166066735,-0.7106722841723192,-0.701714808147728,0.003590059187263438,0.015930740376932477,-0.0005042065167799932,0.0,1.2063005523304284e-15,9.850191526000001
195,289.794,0.4671717171717172,0.03758566290888918,-0.034768027773241526,-0.7106413220012587,-0.7016885387457588,0.004921478000469418,0.002188162925654061,-0.0007325500948354455,0.0,1.2067665280127033e-15,9.8539965062
196,289.886,0.4494949494949495,0.03744010230649281,-0.03468226024784304,-0.7106618560633119,-0.7016794068039198,0.004726075883954202,-0.008145314301367154,-0.0001025176648976634,-0.0019221034000013735,1.2069730945522684e-15,9.85568325
197,289.984,0.4317617866004963,0.036644181356903054,-0.03401144234944838,-0.7107303751844412,-0.7016844333178641,0.0031548384763301802,-0.016628127922303226,0.0013599961404687387,-0.005766310199999661,1.2069730945522684e-15,9.85568325
198,290.086,0.39563106796116504,0.035815773837941656,-0.03331324412866973,-0.710801691004392,-0.701689664995643,0.0015194689296182179,-0.02545717883389648,0.002882204386871664,-0.009767423400000927,1.2069730945522684e-15,9.85568325
199,290.199,0.38349514563106796,0.03545460415750937,-0.03286673899825181,-0.711975150752918,-0.7005357220989012,-0.0038255793225819186,-0.013324889244407436,0.07247861994314009,-0.00980665,0.004324192125986029,9.85568325
200,290.286,0.4256926952141058,0.03518036148506476,-0.032525217352407876,-0.7128861344129389,-0.6996393158995271,-0.00796508221469044,-0.003833461964437207,0.12652852886546911,-0.00980665,0.007683162795276693,9.85568325
201,290.406,0.4836272040302267,0.035091323012619545,-0.032650668994331424,-0.7158475305987283,-0.6965854181407142,-0.00627950196595608,0.0037478572002757815,0.13506775741514643,-0.00980665,0.007225952631580391,9.85568325
202,290.486,0.5037037037037037,0.03519511788274116,-0.03307079961670121,-0.7187835145684891,-0.6935242437597967,-0.0009841082866513442,0.005693692983568652,0.10352282928914755,-0.00980665,0.004049709716601448,9.85568325
203,290.592,0.43349753694581283,0.03532869426652121,-0.03362697820604424,-0.7225891209497053,-0.6895545914843937,0.005760323256254264,0.008121659442782909,0.06278939926624783,-0.009963556399998519,0.0001569063999997264,9.8558401564
204,290.686,0.43005181347150256,0.03535778548933211,-0.03410901128284862,-0.7240514512142939,-0.6879882004006953,0.005591231398284514,0.006876766577363598,0.050718702703719976,-0.013650856799998288,0.0038442067999994952,9.859527456799999
205,290.784,0.40633245382585753,0.035388114636517955,-0.03461155640547457,-0.7255760082986528,-0.6863551543772647,0.00541494414210325,0.005578899547458103,0.03813435947895441,-0.017495063599998806,0.007688413600000014,9.863371663599999
206,290.886,0.37467018469656993,0.03539443245962968,-0.034999745987794394,-0.7268178132021085,-0.6850230765166576,0.0046466522053965125,0.004050327863003399,0.028260366810906094,-0.0196133,0.00980665000000121,9.8654899
207,290.999,0.38817480719794345,0.03536996288416436,-0.03526171050657517,-0.727763582796519,-0.6840055205231661,0.0030666436871415025,0.002135400520919156,0.02133967538904953,-0.0196133,0.00980665000000121,9.8654899
208,291.094,0.37789203084832906,0.035348970447698004,-0.03547473299529998,-0.7285339641340591,-0.6831765034662216,0.001866907559497804,0.0006179308596378613,0.015917148618471277,-0.0196133,0.00980665000000121,9.8654899
209,291.203,0.390745501285347,0.03531963543019962,-0.03562914501081552,-0.7291092449644673,-0.6825553534616765,0.0020948620887272767,3.0079274438553284e-05,0.014633580609890468,-0.0196133,0.00980665000000121,9.8654899
210,291.286,0.4398976982097187,0.03529729775632469,-0.03574672480244668,-0.729547302844503,-0.6820823676783989,0.0022684421430947603,-0.0004175508317226127,0.013656184786842206,-0.0196133,0.00980665000000121,9.8654899
211,291.394,0.41687979539641945,0.03524979919893925,-0.03585803546185286,-0.7300108815813849,-0.6815830765905482,0.002344148155301819,-0.002424505033529775,0.011011308394373073,-0.0196133,0.00980665000000121,9.8676865896
212,291.489,0.44473684210526315,0.03519296227638288,-0.03592189957088036,-0.7303317319284024,-0.6812387649601025,0.002288093172013787,-0.005353408036286443,0.007563263000922098,-0.0196133,0.00980665000000121,9.871413116599998
213,291.58,0.4368421052631579,0.035138518487407816,-0.035983074664790934,-0.7306390727871245,-0.680908950661465,0.0022343983985483873,-0.00815898880734922,0.0042603984661414174,-0.0196133,0.00980665000000121,9.874982737199998
214,291.686,0.46153846153846156,0.03407733782577862,-0.035168918369990525,-0.730957406550531,-0.6806615706985052,0.0016022607274356298,-0.02249785125254957,0.003979477312415837,-0.0196133,0.013650856799999497,9.871452343200001
215,291.789,0.46153846153846156,0.032967045758124425,-0.034307571069188685,-0.7312635843366738,-0.6804320432920524,0.0009428323917093134,-0.03730905994772407,0.0039893995374441155,-0.0196133,0.017691196599999834,9.867412003400002
216,291.886,0.43956043956043955,0.03154070995117175,-0.033117269559527755,-0.7315260643315548,-0.6802734241022205,0.0008236513944276654,-0.04577356064508097,0.0036345085648179006,-0.02147385019762863,0.019613300000001208,9.8654899
217,291.991,0.4363143631436314,0.029576031742412693,-0.03140985067515252,-0.731781613772277,-0.6801653035456198,0.00124918058166718,-0.048876292502926376,0.002847858945739935,-0.025543803754939615,0.019613300000001208,9.8654899
218,292.086,0.39779005524861877,0.027798465744010473,-0.029865043113097723,-0.7320128251710258,-0.6800674801848858,0.001634183179646041,-0.05168352608859787,0.0021361283380022613,-0.029226142687747203,0.019613300000001208,9.8654899
219,292.206,0.40607734806629836,0.025547584777940394,-0.02794968785194163,-0.7322391254630771,-0.6799872548125766,0.0017974904467043965,-0.05108565634356863,0.002296906930672395,-0.02487251149193495,0.019613300000001208,9.860942461491936
220,292.286,0.38935574229691877,0.024046837048625248,-0.026673827260640826,-0.7323880863472959,-0.6799350274912717,0.0018969992970890043,-0.050566964948009094,0.002434811694735308,-0.021709076008064487,0.019613300000001208,9.857779026008064
221,292.396,0.3445378151260504,0.022058223551737366,-0.02496806787166008,-0.7325525374280581,-0.6798904107156472,0.002366835747968977,-0.04919773501804056,0.0018215711559560427,-0.0196133,0.019613300000001208,9.853438354216868
222,292.486,0.35772357723577236,0.020488168615607014,-0.023609380902328475,-0.7326563761043222,-0.6798745957020788,0.003004591280863606,-0.047578371522656815,0.0007090409796867364,-0.0196133,0.019613300000001208,9.849893781927712
223,292.585,0.2868421052631579,0.01876110818586333,-0.022114825236063448,-0.7327705986482127,-0.6798571991871536,0.0037061223670478193,-0.04579707167773438,-0.0005147422142097111,-0.0196133,0.019613300000001208,9.845994752409641
224,292.686,0.28536585365853656,0.017166386375265037,-0.02078803513064321,-0.7328539193936621,-0.6798470242683872,0.0042375654318472095,-0.04443545432554385,1.2011871957597628e-05,-0.02342699722222124,0.019613300000001208,9.84206290277778
225,292.79,0.3554987212276215,0.015529567893730742,-0.019428075374145936,-0.7329386682043664,-0.6798367858380675,0.004778985767477631,-0.04304775625230726,0.0006103710172559592,-0.027474186111112516,0.019613300000001208,9.838015713888888
226,292.886,0.4475703324808184,0.014123352502750144,-0.01820109879789955,-0.733001508247221,-0.6798344618338998,0.0038955952620578944,-0.041008701375927416,0.00028658507416998147,-0.02941995,0.019613300000001208,9.834258279718874
227,292.996,0.4844124700239808,0.012642457347152133,-0.01683052326037366,-0.733054345126691,-0.6798406752032731,0.001160687396684546,-0.03772808925574111,-0.0011755985562710812,-0.02941995,0.019613300000001204,9.829926024698796
228,293.086,0.49160671462829736,0.011430815856207404,-0.015709143275124366,-0.7330975753008028,-0.6798457588691238,-0.001076964493168046,-0.035043952066495763,-0.0023719306175419346,-0.02941995,0.0196133000000012,9.826381452409638
229,293.181,0.42280285035629456,0.010397643231954603,-0.014683732634166648,-0.7331320371549499,-0.6798458075260826,-0.0008474649768323217,-0.03359273576736473,-0.0011374992597850276,-0.025811102800000606,0.012395605600002413,9.819045605600001
230,293.285,0.4077669902912621,0.009275365017239787,-0.013566827677165015,-0.7331693650704686,-0.6798456709711779,-0.000503713423386129,-0.032053371787070836,0.0003030240628872035,-0.021731536399998967,0.004236472799999131,9.810886472799998
231,293.406,0.3492063492063492,0.008051912759313475,-0.012433268772522035,-0.7332202036869979,-0.6798284720786733,0.000896093233954294,-0.02965841185301525,0.0007925083017907794,-0.022241482200000287,0.0052563644000017725,9.80665
232,293.486,0.31746031746031744,0.007286860965630694,-0.011772221029642383,-0.7332577640622108,-0.6798080207485284,0.0023543860982170616,-0.027753128521144595,0.00048387571191418866,-0.02537961019999966,0.011532620400000523,9.80665
233,293.58,0.2638522427440633,0.006387925108053307,-0.010995489931758686,-0.7333018975030859,-0.6797839904356081,0.004067880213726047,-0.025514420606196273,0.00012123241880914544,-0.02906691059999943,0.01890722120000006,9.80665
234,293.686,0.3647959183673469,0.005594612699355595,-0.010313503248272396,-0.7333115326409874,-0.6797905042593873,0.0024372027126758344,-0.023452503952702323,-0.00018647490179699244,-0.02941995,0.0196133000000012,9.80665
235,293.796,0.3469879518072289,0.004792583328119178,-0.009624450986773801,-0.7333176672340377,-0.6798005001957403,0.0004019357094709568,-0.02135731889442954,-0.0004960468292913773,-0.02941995,0.0196133000000012,9.80665
236,293.886,0.39036144578313253,0.0042076178442379845,-0.009095540504927634,-0.7333317668725087,-0.6797966816229957,-0.0005663828323446111,-0.01944896030510048,-0.0005540662809394568,-0.02941995,0.0196133000000012,9.80665
237,293.985,0.4492753623188406,0.0036460822320780887,-0.008553827457729608,-0.7333577189646981,-0.6797786845669335,-0.0008300983256871622,-0.017126532147577603,-0.0003933310062781655,-0.02941995,0.0196133000000012,9.80665
238,294.086,0.46649484536082475,0.0030732024661371295,-0.008001170712608335,-0.7333841953415783,-0.6797603239339811,-0.0010991414047538312,-0.014757186249498478,-0.00022934855435097375,-0.02941995,0.0196133000000012,9.80665
239,294.185,0.42105263157894735,0.002684686003385289,-0.007601843527947024,-0.7333960915312377,-0.6797534305305745,0.0010605927370494878,-0.013495084736495874,-0.0002882923791185193,-0.02941995,0.0196133000000012,9.80665
240,294.286,0.48493975903614456,0.0022957529120781026,-0.007200565436680531,-0.7334076242643756,-0.6797468748336032,0.0033680592700845065,-0.012253033481537971,-0.00035786349605770586,-0.02941995,0.0196133000000012,9.80665
241,294.406,0.49216300940438873,0.0018893508397429554,-0.0068168384843834634,-0.7334213378865803,-0.6797373848349249,0.004482308305799905,-0.011144128434359819,-3.2442724332042085e-05,-0.02941995,0.022202255600002413,9.80665
242,294.486,0.6457564575645757,0.001648796115767456,-0.006611769114403119,-0.7334304865004804,-0.6797301303227129,0.004337525345385047,-0.010604930810630221,0.00040709328837701126,-0.02941995,0.02534038360000179,9.80665
243,294.606,0.6451612903225806,0.0013086591794290484,-0.006319537513974768,-0.7334435999778052,-0.6797196596938566,0.00384713239611587,-0.009606855164515458,0.0010041191819610284,-0.02941995,0.028794824900398926,9.806024874900396
244,294.688,0.6790697674418604,0.0011681532291817447,-0.006188125239273757,-0.7334498539089844,-0.6797143309085814,0.002298485004877393,-0.008084121646277928,0.0011354682019047186,-0.02941995,0.02559105876494143,9.80282110876494
245,294.806,0.7295918367346939,0.0009659617398014709,-0.005999019770801564,-0.7334588534684863,-0.6797066626565997,6.994363699755392e-05,-0.005892870973692138,0.0013244826452383281,-0.02941995,0.02098076115538048,9.798210811155379
246,294.9,0.7078651685393258,0.000860922218250667,-0.005884810651786894,-0.733468776162314,-0.6796971122884709,-0.0006203192162764963,-0.0048251054156199236,0.001309101672723439,-0.031743614056223994,0.019613300000001197,9.79684335
247,295.012,0.6853932584269663,0.0007753704115220561,-0.005774483981219978,-0.7334825452011503,-0.6796833004359251,-0.0006758537906480197,-0.0040319587653838375,0.0011734780659113486,-0.03615463734939818,0.019613300000001197,9.79684335
248,295.105,0.6208791208791209,0.0007061656820341093,-0.005686367616239426,-0.7334919385786157,-0.6796739947550801,-0.0004905842919827509,-0.0033730652020309776,0.0011925377510491307,-0.038638200999998304,0.019613300000001197,9.797431749000001
249,295.206,0.650887573964497,0.0006413640352723813,-0.005610404038897801,-0.7334906203631014,-0.6796761042268875,0.0010173144852748867,-0.0026558064650741195,0.0019568508062514887,-0.03467631439999834,0.019613300000001197,9.801393635600002
250,295.286,0.706766917293233,0.0005900359982333986,-0.0055502348687262275,-0.7334895762320011,-0.6796777750956459,0.0022116897543896204,-0.0020876807328311714,0.0025622472856195776,-0.03153818639999897,0.0196133000000012,9.8045317636
251,295.404,0.7787610619469026,0.0005541964013102095,-0.0055156201864197014,-0.7334850490849002,-0.6796829800476796,0.0032416396505630433,-0.001549519837296472,0.0018095388454512026,-0.031900683596838356,0.0196133000000012,9.80665
252,295.486,0.6019417475728155,0.000552667649785294,-0.005523307055480017,-0.7334801516879337,-0.6796882038520698,0.0035283149683869772,-0.0013513411786370655,0.0003215577950327398,-0.035079123517786186,0.0196133000000012,9.80665
253,295.606,0.6421052631578947,0.0005496150539708868,-0.005537756562431704,-0.7334749635528542,-0.6796936873205176,0.0038551059850757924,-0.001133580174087573,-0.0015634336222682228,-0.038714606224900444,0.0196133000000012,9.80665
254,295.686,0.5591397849462365,0.0005431057523862333,-0.005564950902438071,-0.7334823627572751,-0.6796854844944729,0.003564119445586517,-0.0013848908009926838,-0.0012148650537010502,-0.035563875301205874,0.0196133000000012,9.80665
255,295.797,0.5769230769230769,0.0005340740964375211,-0.005602683049196929,-0.7334926291534091,-0.6796741030733358,0.0031603756220448974,-0.0017335842958237412,-0.0007312261648137977,-0.03119223614457694,0.0196133000000012,9.80665
256,295.886,0.5769230769230769,0.0005376597195355198,-0.00561781833134211,-0.7334965020275479,-0.6796697965239615,0.002480095459978208,-0.0016399943905630052,-0.0007406521923318061,-0.02941995,0.0196133000000012,9.80665
257,295.982,0.7258064516129032,0.0005534715855122998,-0.005617465893287443,-0.7334958710929708,-0.6796704675209275,0.001352967677570259,-0.0011273715551566965,-0.00118900676833921,-0.02941995,0.0196133000000012,9.80665
258,296.086,0.5510204081632653,0.0005706011069871416,-0.005617084085394887,-0.7334951875805121,-0.6796711944343073,0.00013191257996186985,-0.0005720301501332967,-0.0016747242256804757,-0.02941995,0.0196133000000012,9.80665
259,296.2,0.5714285714285714,0.0006213899467233944,-0.005674510064686082,-0.7335038060711239,-0.6796613660594069,0.0011088036054529228,0.00024713515591581986,-0.0006720153791125833,-0.02941995,0.023871964741036693,9.80665
260,296.286,0.7,0.0006608121140105341,-0.005719833118335908,-0.7335106319083141,-0.679653583988318,0.0019258790309968725,0.0008723837174142092,0.00013753705828710092,-0.02941995,0.027232012151396076,9.80665
261,296.405,0.6538461538461539,0.0007279417001785275,-0.005793194366665186,-0.7335090440290941,-0.6796546038512403,0.0028838842408730127,0.001264839823550845,9.255166443811191e-05,-0.02941995,0.026908490853660594,9.80665
262,296.486,0.7692307692307693,0.0007812465629382124,-0.005849571089534576,-0.7335012878157051,-0.6796624303258761,0.0034315420780329773,0.0012459623337746067,-0.000643051530393371,-0.02941995,0.023679471951221377,9.80665
263,296.585,0.7407407407407407,0.0008463969507555843,-0.005918475973041587,-0.7334918079993409,-0.6796719960170976,0.004100901656783831,0.001222889846270323,-0.0015421221018537858,-0.02941995,0.019732893292685814,9.80665
264,296.686,0.7777777777777778,0.0008913016129525245,-0.005945576060842219,-0.7334974884337069,-0.6796655693324845,0.0033815406711973747,-0.0007274201399318848,-0.0007805487029662433,-0.02941995,0.0196133000000012,9.80665
265,296.796,0.5555555555555556,0.000939488805628767,-0.005973650823220222,-0.7335041868741982,-0.6796580303432513,0.0025513273343563056,-0.0029157588153470165,0.00010485921318263572,-0.02941995,0.0196133000000012,9.80665
266,296.886,0.6086956521739131,0.0009506829115094516,-0.005993965613949652,-0.7335061621629723,-0.6796557054564344,0.0019435543463148935,-0.0031218368206618655,0.00038558770397517,-0.031192236144579177,0.021385586144580377,9.808422286144578
267,296.982,0.6363636363636364,0.0009325093934768541,-0.0060128022233698055,-0.7335045302006553,-0.679657325179404,0.0013715217930700095,-0.0016516470546682426,0.00021175551508737157,-0.03497311325301356,0.02516646325301476,9.812203163253013
268,297.079,0.75,0.0009141465679647548,-0.006031835047471414,-0.733502881238731,-0.6796589617744879,0.0007935305673956324,-0.00016614281194588226,3.6112574232034734e-05,-0.0387933744979932,0.0289867244979944,9.816023424497992
269,297.205,0.5714285714285714,0.0009155729083246328,-0.006053352846794109,-0.7335037629216259,-0.6796578168172235,0.0011351271481659904,-0.000565037424657665,0.00014114935119222957,-0.0392266,0.02494469305555657,9.811981393055556
270,297.286,0.8333333333333334,0.0009180442694845431,-0.0060669886247415716,-0.7335045156430584,-0.6796568796468563,0.0014218967149241773,-0.0009646518802685149,0.00022916116803472657,-0.0392266,0.021792555555556016,9.808829255555555
271,297.374,0.6666666666666666,0.000907612064337932,-0.006059668862755145,-0.7335069977540786,-0.6796542782418153,0.0017701616324486181,-0.0013333328617737825,0.0003386144647375345,-0.0392266,0.020868551200002736,9.80665
272,297.486,0.5555555555555556,0.0008651192625305103,-0.00600105448002865,-0.7335138637426396,-0.6796474410450605,0.0022951772995293395,-0.0016567479846999206,0.0005087341377511705,-0.0392266,0.025261930400001416,9.80665
273,297.604,0.5,0.000817912071124291,-0.0059451236874156314,-0.7335193999651236,-0.6796420200262528,0.0028523957859724783,-0.0020595624707639253,0.0006226859120652064,-0.0392266,0.028949230800001183,9.80665
274,297.686,0.75,0.0007701416748709365,-0.005942004502371627,-0.7335128266725055,-0.6796491943398418,0.003264641620218724,-0.0027205178216099263,0.0003011478893459078,-0.0392266,0.025732649600001434,9.80665
275,297.791,0.3333333333333333,0.0007089722650343087,-0.0059380104239616215,-0.7335044096514701,-0.6796583809609009,0.0037925173835829514,-0.0035668630879373345,-0.00011057762755085833,-0.0392266,0.02161385660000072,9.80665
276,297.886,0.6666666666666666,0.0006612496712156652,-0.005937178328650745,-0.7335052644984246,-0.6796575151085501,0.0034233236685389614,-0.003509075189008887,0.0002257358077918349,-0.03750062959999845,0.017887329599999648,9.804924029599999
277,298.006,0.8333333333333334,0.0006121267504549297,-0.005940199834917449,-0.7335187457192822,-0.6796429844028139,0.0017171677201988124,-0.002230339137837426,0.0016883569005875228,-0.0327934376000005,0.013180137600001699,9.8002168376
278,298.076,0.7,0.0005834717133444676,-0.005941962380239694,-0.7335266097647826,-0.679634508157801,0.0007219100836659137,-0.0014844097746532156,0.0025415525380526557,-0.030047575599998537,0.010434275599999737,9.797470975599998
279,298.206,0.7142857142857143,0.000580086503058233,-0.005931404841512885,-0.7335353894273,-0.679625127636173,-0.0007099510263655069,-0.0018505930565299142,0.0014415068784724928,-0.02941995,0.014278482400002485,9.79684335
280,298.281,0.7142857142857143,0.0005821684191647131,-0.005924194047941155,-0.7335399829578284,-0.6796202308636754,-0.0015023021120580309,-0.002203672939445924,0.0005894925328900477,-0.02941995,0.017220477400002036,9.79684335
281,298.373,0.7142857142857143,0.0005668686685857864,-0.005905874480579423,-0.7335360437220554,-0.6796246521409275,-0.0015952662459065986,-0.0024567628798791118,-0.00046174369930510663,-0.02941995,0.019613300000001197,9.79684335
282,298.486,0.7142857142857143,0.0005049262884230598,-0.005860474767331799,-0.7335080659891055,-0.6796552860237398,0.00041497246347402955,-0.0023325295948175,-0.0017676758213501437,-0.02941995,0.019613300000001197,9.79684335
283,298.585,0.8333333333333334,0.000450658185448641,-0.005820699797318397,-0.7334835545239548,-0.6796821245582392,0.002176155049568383,-0.0022236880441883107,-0.0029118110433186883,-0.02941995,0.019613300000001197,9.79684335
284,298.678,0.6666666666666666,0.00036422305882010666,-0.0057801500745691394,-0.7334811373364815,-0.6796851202563895,0.002237142907103989,-0.0028242954000620543,-0.0030144703393076423,-0.03276760160642534,0.019613300000001197,9.800191001606425
285,298.774,0.5714285714285714,0.0002715550207460424,-0.005737982827030386,-0.7334806443900157,-0.6796860541982465,0.0021452879305016255,-0.003512561902867675,-0.0030259947717025224,-0.03654847871485972,0.0196133000000012,9.80397187871486
286,298.859,0.6363636363636364,0.00019364244679080658,-0.005690419333593825,-0.7334789822301282,-0.6796882798875569,0.002062276117986008,-0.003974011093674913,-0.0028659017539520693,-0.0392266,0.0196133000000012,9.80665
287,298.97,0.3333333333333333,0.00011350884588134693,-0.005574881219845234,-0.7334704091812078,-0.6796984928484366,0.0019450870795227108,-0.003803770293470477,-0.0017672880205779609,-0.0392266,0.0196133000000012,9.80665
288,299.059,0.8333333333333334,4.9257580287303783e-05,-0.005482242552064874,-0.7334635352951364,-0.6797066816188717,0.0018511246973314593,-0.0036672709131264397,-0.0008864175496747814,-0.0392266,0.0196133000000012,9.80665
289,299.166,0.8,-4.308575586779984e-05,-0.005407164167660212,-0.7334583733847969,-0.6797128513046377,0.002605340265668702,-0.0032077806890012,5.314003443328188e-05,-0.03636305820000082,0.0196133000000012,9.809513541799998
290,299.258,0.6,-0.00012852969578775256,-0.005357145996398321,-0.7334551774164687,-0.679716684291113,0.003601096984929943,-0.0026944151520731097,0.0008131422917355576,-0.03275421100000143,0.0196133000000012,9.813122388999998
291,299.366,0.6666666666666666,-0.00022300694960357577,-0.005305427730328466,-0.733447385117004,-0.6797254834009298,0.004431103367358573,-0.0024303662739691167,0.0012134817601185807,-0.030322161799998734,0.0196133000000012,9.815554438200001
292,299.456,0.75,-0.00028379405792456567,-0.005283883196819586,-0.7334284479327614,-0.6797460572585604,0.004078983303159477,-0.003253108073025938,3.238229406998198e-05,-0.03385255579999998,0.0196133000000012,9.8120240442
293,299.566,0.4666666666666667,-0.0003580894125390534,-0.005257550989197642,-0.7334053024853538,-0.6797712030845534,0.0036486143358053485,-0.004258681382983524,-0.001411183719988339,-0.038167481799998286,0.0196133000000012,9.807709118200002
294,299.66,0.6923076923076923,-0.00040003057056087156,-0.005212582583278183,-0.7334044364801489,-0.6797724588388598,0.0032672468349337278,-0.004636210920289173,-0.0004354568086563091,-0.044482964400000574,0.022241482200001488,9.80665
295,299.776,0.5,-0.0004410721072915752,-0.005145917130732716,-0.733412773157878,-0.6797639468575761,0.002789860986173183,-0.004862509602680788,0.001867328014224624,-0.05358353559999943,0.026791767800000914,9.80665
296,299.886,0.7142857142857143,-0.0004924306259339867,-0.005072432660821812,-0.7334163544223188,-0.6797605970986497,0.002085004728639847,-0.004641625019109377,0.0029636704700579117,-0.055479852589640624,0.02773992629482151,9.804969976294819
297,299.966,0.7142857142857143,-0.0005438789852212494,-0.0050073546626002215,-0.7334140588211524,-0.6797635117852662,0.0012866330525069572,-0.003987501147184578,0.002528853176451051,-0.04922860159362534,0.024614300796813867,9.801844350796813
298,300.069,0.6666666666666666,-0.0006101187478036191,-0.004923566739889901,-0.7334111032346506,-0.6797672644442848,0.00025872951948557096,-0.003145316662081161,0.0019690259109320595,-0.041180115936253384,0.020590057968127892,9.797820107968127
299,300.175,0.6666666666666666,-0.0009328233222758494,-0.004612254243355039,-0.7334052412731048,-0.6797751380120182,0.0013958627346859845,-0.0091596112687552,0.0011649657986182165,-0.0392266,0.019613300000001197,9.79684335
300,300.278,0.6666666666666666,-0.001322731681610146,-0.004242248205387989,-0.7333986993919113,-0.6797839918515375,0.003159101123465407,-0.01706735147387752,0.0003153051821940679,-0.0392266,0.019613300000001197,9.79684335
301,300.366,0.6666666666666666,-0.0018325290322430596,-0.0037706522903184045,-0.7333928822624247,-0.6797911872012199,0.004199319386854869,-0.023545803807673748,-0.00019613935472446886,-0.0392266,0.019613300000001197,9.798647773599997
302,300.482,0.8333333333333334,-0.003162689317590201,-0.0025698154532625963,-0.7333843650488723,-0.6797992969893285,0.0038336420375853462,-0.03105115937441652,-7.131802896036241e-05,-0.0392266,0.0196133000000012,9.8077483448
303,300.577,0.8,-0.004252044723692727,-0.0015863714918813495,-0.7333773897446697,-0.6798059386261417,0.0035341648980975766,-0.037197786778210326,3.090633265672463e-05,-0.0392266,0.0196133000000012,9.815201398799998
304,300.665,0.8,-0.005584184194471134,-0.00041406839509522115,-0.7333495967719175,-0.679824398043311,0.0033428703297478557,-0.04056465894399442,-0.000634858046150091,-0.0392266,0.0196133000000012,9.81645665
305,300.773,0.8333333333333334,-0.00730718782435979,0.0010959372493135908,-0.7333096694949033,-0.67985040928187,0.003131585859830827,-0.04406213500644658,-0.0016593297162425654,-0.0392266,0.0196133000000012,9.81645665
306,300.886,0.6666666666666666,-0.009146599491838676,0.0027282322303371076,-0.7332544455053018,-0.6798840414264605,0.002757518593221735,-0.04676764512062102,-0.00312168627232369,-0.0392266,0.0196133000000012,9.81645665
307,300.966,0.6,-0.010492687716981752,0.003946529535407674,-0.733199254073045,-0.6799155312620526,0.0023095808960496593,-0.04754144215583815,-0.004624279208481571,-0.0392266,0.0196133000000012,9.81645665
308,301.083,1.0,-0.012461341746254205,0.005728289344074015,-0.7331185366033695,-0.6799615851466061,0.0016544720139352635,-0.04867312031984361,-0.006821821377613261,-0.0392266,0.0196133000000012,9.81645665
309,301.173,0.8,-0.01411077683051731,0.007189797644516437,-0.7330482060131923,-0.6799862451288312,0.0008420481021145719,-0.04925011399101062,-0.005212598538725629,-0.0392266,0.0196133000000012,9.81645665
310,301.26,0.6,-0.015723413184158225,0.00861482727270124,-0.7329791106481663,-0.6800086340059871,1.51819549502742e-05,-0.049768365919589885,-0.003212887716169588,-0.0392266,0.0196133000000012,9.81645665
311,301.366,0.8,-0.01768003507239753,0.010373590982336882,-0.7328815639061527,-0.6800449197248517,-0.0007709687050669471,-0.05069457154824858,-0.0016573493728832495,-0.0392266,0.0196133000000012,9.81645665
312,301.464,1.0,-0.01946163133357328,0.01207475459687878,-0.7327468003762735,-0.68010851838165,-0.000759470097505418,-0.052534335667630924,-0.003158162924019399,-0.0392266,0.0196133000000012,9.81645665
313,301.566,0.5,-0.021315945809490203,0.013845353460993155,-0.7326065362941543,-0.6801747129019912,-0.0007475021590230145,-0.05444919220004856,-0.004720234171119703,-0.0392266,0.0196133000000012,9.81645665
314,301.664,0.75,-0.023209881460306024,0.015590653682048063,-0.7324427841266111,-0.680247560368481,-0.0005016835266724465,-0.0557771657407283,-0.005764192752540045,-0.03648073800000027,0.0196133000000012,9.81645665
315,301.766,1.0,-0.02522789047541386,0.017425565887082408,-0.7322602794581816,-0.6803272317258012,-0.00014827783778301,-0.056946270287037186,-0.006660561043769338,-0.032479624799999,0.0196133000000012,9.81645665
316,301.876,0.75,-0.0274224265665169,0.019430595919882585,-0.7320504172604062,-0.6804169690056936,9.511154610665141e-05,-0.0578083900511265,-0.007362705409526809,-0.02941995,0.0196133000000012,9.81645665
317,301.966,0.8333333333333334,-0.029254356110108633,0.02112333244616256,-0.731852699060895,-0.6804980031052722,1.956210006027231e-05,-0.05771866747736929,-0.007409635517746211,-0.02941995,0.0196133000000012,9.81645665
318,302.072,0.6,-0.031411962017004684,0.02311699991044705,-0.7316198309592487,-0.680593443266998,-6.941835861653815e-05,-0.05761299422383308,-0.0074649087563157055,-0.02941995,0.0196133000000012,9.81645665
319,302.166,0.6,-0.03348077481341337,0.02498148285042215,-0.7313655035886343,-0.6806961953506118,0.00028477528762512676,-0.059601973041015624,-0.0073053305694723665,-0.02941995,0.016844363529412813,9.824763459411765
320,302.283,0.8,-0.03611491248331829,0.02733887506327681,-0.7310307596739694,-0.6808309789413737,0.000890349881614084,-0.06286970341906897,-0.007027374333975879,-0.02941995,0.012344841764706136,9.838262024705886
321,302.366,0.4,-0.03802058889284363,0.029035422175521523,-0.7307761827852433,-0.68093560295143,0.0014536218571937639,-0.06535640525502862,-0.00681021111464599,-0.02941995,0.009806650000001206,9.8458766
322,302.474,0.8,-0.040687252442211046,0.031365275175575184,-0.7303584960370213,-0.6811172477760259,0.0028618516095691863,-0.06944367637842579,-0.006426700610455518,-0.02941995,0.009806650000001206,9.8458766
323,302.577,0.8571428571428571,-0.04323045934577453,0.03358726461081164,-0.729960146638254,-0.6812904831180017,0.004204885540075438,-0.07334172198685104,-0.006060945222199775,-0.02941995,0.009806650000001206,9.8458766
324,302.674,0.5714285714285714,-0.045386882735261896,0.03551974725333639,-0.7295273409907612,-0.6815103583018453,0.003151691864711102,-0.06566907039285225,-0.007473670659585862,-0.026321048600001926,0.009806650000001207,9.852074402799996
325,302.774,0.5,-0.047553945348671446,0.037474397644707495,-0.7290676053079054,-0.6817503596264162,0.001521440429147763,-0.055094559699299744,-0.009342840095981457,-0.022398388600001033,0.009806650000001207,9.859919722799997
326,302.868,0.3333333333333333,-0.04934863240706298,0.03913130162710626,-0.7286250551331551,-0.6820098308899072,-3.443934814948541e-05,-0.04554890075326252,-0.01085498091950986,-0.0196133,0.00980665000000121,9.8654899
327,302.973,0.4,-0.05051765950712593,0.04035981169124446,-0.7280948606465509,-0.6824164562777248,-0.0018532277001065555,-0.03624610000848895,-0.011699685484170795,-0.0196133,0.00980665000000121,9.8654899
328,303.074,0.8,-0.051642152241472,0.0415415213719867,-0.7275848640451509,-0.6828075911745779,-0.003602728876750656,-0.02729769167304172,-0.01251221082732069,-0.0196133,0.00980665000000121,9.8654899
329,303.179,0.8,-0.0524515439439409,0.04237594679801189,-0.7270376529960552,-0.6832769160542621,-0.0022859989702712306,-0.023348928272725486,-0.014098263926803157,-0.0196133,0.00980665000000121,9.872079968799996
330,303.262,0.6,-0.053020278008749346,0.04295766159914799,-0.7266017328937058,-0.6836602968111197,-0.0006255171978851561,-0.021285584583879184,-0.015498505730181477,-0.0196133,0.009806650000001211,9.878591584399997
331,303.368,0.7,-0.05369554939274079,0.04365626047144599,-0.72602143052589,-0.6841806532969386,0.0007507890345061061,-0.018717112483449896,-0.017406885126926643,-0.0196133,0.009806650000001211,9.8851032
332,303.465,0.8,-0.054144858956252255,0.04414920633678156,-0.7254125140150091,-0.684758333545167,-0.0004476904167777984,-0.01658678831285821,-0.01954990019460678,-0.0196133,0.009806650000001211,9.8851032
333,303.574,0.42857142857142855,-0.05464975320803346,0.044703135195767185,-0.7247282676264931,-0.6854074793911148,-0.0017944353671903472,-0.014192918884047685,-0.021958030528393,-0.0196133,0.009806650000001211,9.8851032
334,303.686,0.5555555555555556,-0.05499807402343794,0.045103543094945284,-0.723959484393113,-0.6861645945403769,-0.001540712435685556,-0.01246949919455135,-0.020694352686405532,-0.0196133,0.009806650000001211,9.888683405555554
335,303.77,0.6666666666666666,-0.05523152067709296,0.045376332708206214,-0.7233721842981664,-0.6867471215931745,-0.0010834309560735632,-0.011296989218819976,-0.019137123599648826,-0.0196133,0.009806650000001211,9.891952288888888
336,303.868,0.6666666666666666,-0.055468917195866496,0.04567839194988812,-0.7226617402215142,-0.687456158039473,-0.0006250876467675121,-0.009714167848553524,-0.017729889115561608,-0.018760547826087243,0.008953897826088455,9.895762602173912
337,303.966,0.7777777777777778,-0.05558555002385398,0.04592450376696485,-0.7218640321415147,-0.6882668325723154,-0.0004263594746589433,-0.007388988616526334,-0.01773740424822442,-0.014961924505928419,0.00515527450592963,9.899561225494072
338,304.07,0.8333333333333334,-0.05570932363722842,0.046185683654474785,-0.7210174847913114,-0.6891271402398214,-0.00021546427160501068,-0.0049214514723349015,-0.017745379491050255,-0.010930732411067116,0.0011240824110683289,9.903592417588932
339,304.17,0.8333333333333334,-0.05583844093766441,0.04641464255192262,-0.7204907320520993,-0.689652345618143,-0.0010585725582546437,-0.004980806967303946,-0.015275109048571265,-0.00980665,0.0028075489919378483,9.9047165
340,304.277,1.0,-0.055981012416124604,0.04664993689372314,-0.7200526404954538,-0.6900823226980036,-0.0024177974809126914,-0.006107198585185357,-0.011548955654424861,-0.00980665,0.007038643951614279,9.9047165
341,304.378,1.0,-0.056107630128169717,0.046947924453752524,-0.7197068080512835,-0.6904127325623453,-0.003682282143627819,-0.006839393310802409,-0.008063360196388559,-0.00980665,0.008585741767069369,9.9047165
342,304.475,1.0,-0.05621197287600553,0.047398682459396,-0.7195214739335806,-0.6905664195113197,-0.0048565206390970075,-0.006824696286914335,-0.004784369025842177,-0.00980665,0.004765480522088362,9.9047165
343,304.566,0.8,-0.05630986143325347,0.047821558526545675,-0.7193476037819213,-0.6907106000510791,-0.005958125825567095,-0.006810908357287391,-0.0017082020514148774,-0.00980665,0.0011815240963878072,9.9047165
344,304.663,1.0,-0.055245878557815875,0.04728570330432673,-0.7192878782872973,-0.6908924128620757,-0.0062477935440838255,0.014894218357282253,-0.0008221186869777896,-0.007178467799999715,1.2129779358186976e-15,9.9047165
345,304.777,1.0,-0.05338061084983253,0.04613674509127914,-0.7192837850672624,-0.6911208905814951,-0.006122735839337129,0.051817595398048075,-0.001039973735343639,-0.00270663540000066,1.2129779358186976e-15,9.9047165
346,304.86,1.0,-0.05168417042298653,0.04496863993458238,-0.7193073025256695,-0.6912990233749193,-0.006076199252158424,0.07678799116611668,-0.0011147457333281323,0.0,1.2129106815965136e-15,9.9041673276
347,304.966,0.75,-0.04738766785293297,0.0413897537545791,-0.7195041213093338,-0.6916006967056865,-0.006296953596174727,0.09664054930210199,-0.0006825107708573274,0.0,1.2124014710571204e-15,9.900009308
348,305.063,0.8571428571428571,-0.04345596267090344,0.03811473526910491,-0.7196842290641964,-0.6918767562630865,-0.006498964646831123,0.11480751287936874,-0.0002869750033133502,0.0,1.2119354953748456e-15,9.8962043278
349,305.176,0.6,-0.03837737914016039,0.033699200025386185,-0.7199028445941914,-0.6921549036339971,-0.005646581929177229,0.12157263338565814,-0.0002989930054172731,0.0,1.2106240380422575e-15,9.885495466000002
350,305.272,0.8,-0.03388818741057154,0.029737575588849225,-0.7200916547034582,-0.692375979876275,-0.004541252177208804,0.12227416193485251,-0.0004748910656198784,0.0,1.2092405226144722e-15,9.8741982052
351,305.384,0.8,-0.02876699859307203,0.025183579738229565,-0.7202789322063385,-0.6926099409831089,-0.003620180554687957,0.12104408562183329,-0.0006927126646042254,0.0,1.2076264212820557e-15,9.861018067599998
352,305.478,0.5555555555555556,-0.024658777590307154,0.021472450633121976,-0.7203821748230969,-0.692767139088039,-0.0034493810571730047,0.11666359186172462,-0.000896132402122046,0.0,1.2062717290923493e-15,9.8499561664
353,305.572,0.7,-0.020550556587542276,0.01776132152801439,-0.7204854174398551,-0.6929243371929691,-0.003278581559658052,0.11228309810161595,-0.0010995521396398662,0.0,1.204917036902643e-15,9.8388942652
354,305.672,0.5555555555555556,-0.01661204199295341,0.014169443929774216,-0.7205430382116816,-0.6930405828612446,-0.0020258556812143467,0.1056845568032114,-0.001638382735842717,0.0,1.2042103928787016e-15,9.833124078853755
355,305.766,0.5555555555555556,-0.01303805425841537,0.010898793986196607,-0.7205817030768066,-0.6931347188915021,-0.0005303682518286983,0.09890651691101102,-0.002240593292982503,0.0,1.20376418333005e-15,9.829480501383399
356,305.869,0.5555555555555556,-0.009318801740093072,0.007454588143426756,-0.7206169443983593,-0.6932255478004705,0.0010610231059428477,0.08979042252945667,-0.00273089570128502,0.0,1.2031764852354288e-15,9.824681582258062
357,305.99,0.8,-0.005909642524439037,0.004089024381559225,-0.720623605861599,-0.6932721860231993,0.002700015153800055,0.07084648483883078,-0.0024802036622854177,0.0,1.2020045726656903e-15,9.815112189919352
358,306.086,0.6666666666666666,-0.0032048550475559682,0.0014188250333001659,-0.7206288909894587,-0.6933091882494965,0.004000372481025863,0.05581658386114118,-0.0022813074991121407,0.0,1.2010747907921788e-15,9.807519944758061
359,306.177,1.0,-0.00378664528021467,0.0011712295126978388,-0.7206143905560477,-0.6933235118049964,0.01092997170985092,0.012769931703784786,-0.0019901704601942133,0.0,1.2009682532858392e-15,9.80665
360,306.274,0.8333333333333334,-0.004867848259946102,0.0012419968586268185,-0.7205960745056116,-0.6933357383119437,0.01915144915133892,-0.037335995450626686,-0.001664799900259748,0.0,1.2009682532858392e-15,9.80665
361,306.366,1.0,-0.006651894530609707,0.001885179765257517,-0.7205748349370543,-0.6933313464429971,0.025860395059880113,-0.07982730271806829,-0.0010698685372448017,0.0,1.201150073180759e-15,9.808134672111553
362,306.478,0.5454545454545454,-0.012371896224698194,0.005362632438789857,-0.720530887761557,-0.693251217747914,0.028935375411909724,-0.1080201956855377,0.0009936716850938274,0.0,1.2022218536139703e-15,9.816886423505977
363,306.586,0.6666666666666666,-0.017887612143996874,0.008715890373981188,-0.7204885101280419,-0.6931739507919411,0.03190053503708064,-0.13520619961845,0.002983514042348597,0.0,1.2032553561745668e-15,9.825325612350598
364,306.681,0.3333333333333333,-0.022579929662347197,0.011683197546867849,-0.7204236834840587,-0.6930343246979945,0.027664730325342266,-0.11977204928795918,0.0018071397207680702,0.0,1.2033701897924109e-15,9.8262633
365,306.784,0.8333333333333334,-0.027642392312714894,0.014903154952413095,-0.7203490791966152,-0.6928717077065311,0.021999399121626125,-0.09687028789376562,7.293254686851526e-05,0.0,1.2033701897924109e-15,9.8262633
366,306.864,0.5,-0.031144502043784036,0.017123414681697525,-0.720300748562607,-0.6927485223428307,0.017809913478791888,-0.079951874464751,-0.0006491826660931827,0.0,1.2035335214748577e-15,9.827597004400001
367,306.966,0.6,-0.033578414004584035,0.01862804199628093,-0.7202845552503412,-0.6926061987312422,0.013464215107260934,-0.06248863473534101,0.0013824980147188633,0.0,1.2045135115695392e-15,9.835599230800003
368,307.072,1.0,-0.03610777349325761,0.020191674303592522,-0.7202677269062218,-0.6924582938015521,0.008948097191750035,-0.04434056207537262,0.0034938524477188407,0.0,1.2055319326483257e-15,9.843915270000002
369,307.174,0.8333333333333334,-0.03794864471334074,0.02142398328191324,-0.7202496502814563,-0.6923410899247447,0.00708570835366847,-0.03990122711658478,0.003142667641863252,0.0,1.2061420245209947e-15,9.8488970482
370,307.278,0.8333333333333334,-0.03962929034672184,0.022590306508819026,-0.7202305957584589,-0.692229903607576,0.006008880618959251,-0.03968629944324485,0.0019957694765175985,0.0,1.2066416273143616e-15,9.852976614600001
371,307.374,0.6666666666666666,-0.041152244921484234,0.023671801320763734,-0.7202058095667807,-0.692132595448895,0.005170752266861718,-0.039299932374493904,0.001038459765332211,0.0,1.2069730945522684e-15,9.85568325
372,307.474,0.6666666666666666,-0.042663025800117556,0.0248113724669805,-0.7201608308685005,-0.6920454091020941,0.004712624242529273,-0.03839707747101784,0.00031110091367736925,0.0,1.2069730945522684e-15,9.85568325
373,307.574,0.6666666666666666,-0.04417380667875174,0.025950943613197913,-0.7201158521702202,-0.6919582227552932,0.0042544962181965676,-0.03749422256754126,-0.00041625793797788586,0.0,1.2069730945522684e-15,9.85568325
374,307.666,1.0,-0.04488652623461457,0.02665866720449193,-0.720104615849252,-0.6918982190332076,0.00226860733604762,-0.028131050890998675,-0.00035604906856623585,0.0,1.2072891388294488e-15,9.858263947368421
375,307.766,1.0,-0.045355462724817615,0.027274112407285226,-0.7201060126608944,-0.6918421214817471,-0.0005963069956134472,-0.014101203425450258,3.871363813914223e-05,0.0,1.2077753607943418e-15,9.862234251012147
376,307.884,1.0,-0.0457001426633475,0.02794088505894006,-0.7200961095663282,-0.6918036066537899,-0.003612217634916331,-0.0038467856943607804,-3.5357031971230805e-05,0.0014121576000000536,1.2083470022340274e-15,9.8669020576
377,307.966,0.75,-0.04560937781218662,0.028310130114492457,-0.7200709435838487,-0.6918206561945599,-0.00513076854497185,-0.006694138184189622,-0.0009414025694131292,0.004628738799999804,1.2087409198211051e-15,9.8701186388
378,308.086,0.5,-0.045476551200731664,0.028850488732374075,-0.7200341153168055,-0.6918456067420281,-0.007353038169443599,-0.010860995486378654,-0.0022673228681087433,0.009335930799999982,1.2093173845826823e-15,9.874825830799999
379,308.169,1.0,-0.045174146778417475,0.03017023553285127,-0.7123156875344094,-0.6995370369348504,-0.028440175194284305,-0.017651164777574214,-0.2052264929822707,0.00980665,1.2093750310588401e-15,9.87529655
380,308.286,1.0,-0.04469770669311103,0.032255984544494985,-0.6996026571144591,-0.7122075356835174,-0.0628231960013474,-0.02815394754707714,-0.5394618399664421,0.00980665,1.2093750310588401e-15,9.87529655
381,308.383,0.5,-0.044715026628975134,0.03330655761427899,-0.6811238807150567,-0.7290310783034694,-0.06919354669750814,-0.029243427021433108,-0.749784799814194,0.011179580999998752,1.2095431666143e-15,9.876669480999999
382,308.465,0.5714285714285714,-0.045347111820276814,0.033178413549885905,-0.6536141532129978,-0.7527156331893485,-0.04143136520685059,-0.018756569506605487,-0.8275835721492405,0.014396162199998501,1.2099370842013778e-15,9.879886062199999
383,308.606,0.4,-0.04652785791961482,0.03268045635377019,-0.605707859301994,-0.7933510796076546,0.004549624174831079,-0.0010852801986055288,-0.9560351004600472,0.0196133,-0.000313812799998058,9.8854170128
384,308.686,0.25,-0.048083205444320966,0.029779318607763793,-0.5728392808961743,-0.8155536169830696,0.014070476740594565,0.00553589953109324,-0.9786922469139001,0.0196133,-0.0034519407999974334,9.888555140799998
385,308.794,0.25,-0.05018292460267475,0.025862782650654233,-0.5284667000483072,-0.8455270424398871,0.026923627704378318,0.014474492166188695,-1.0092793946266088,0.0196133,-0.007688413599997593,9.892791613599998
386,308.886,0.6,-0.05188260307637152,0.0222746851856276,-0.48859507264336344,-0.8694151661811016,0.03168805216252756,0.01887475171685204,-1.0311631259918232,0.0196133,-0.008316039199998359,9.89490985
387,308.989,0.8,-0.05364395429046204,0.017856989472302118,-0.44065850135279816,-0.8935426749789304,0.027182748071850976,0.018687625743448674,-1.0490259213447506,0.0196133,-0.00427569940000025,9.89490985
388,309.105,0.6153846153846154,-0.055556691013495405,0.012898547387319784,-0.38644434599322,-0.9202851309460639,0.021855592909158554,0.018517732187577483,-1.068237188763506,0.0196133,1.2117769675654117e-15,9.89490985
389,309.186,0.671875,-0.056121174523965776,0.00961914813347444,-0.3461160377544099,-0.9342803250619861,0.015382464329794475,0.018843270720928455,-1.071800273234449,0.0196133,1.2117769675654117e-15,9.89490985
390,309.286,0.6568627450980392,-0.0568180677467692,0.005570507079341488,-0.29632800289164574,-0.9515583424890629,0.007390947565141744,0.019245170144818833,-1.0761991429516657,0.0196133,1.2117769675654117e-15,9.89490985
391,309.385,0.819047619047619,-0.05678252649769238,0.0015977878644140618,-0.24585617864499476,-0.9665507838096842,-0.003249537520233472,0.019768470913352727,-1.0794124748060097,0.02092350020242969,0.0026204004048605892,9.89490985
392,309.486,0.9074074074074074,-0.055266024425305,-0.002382885712533578,-0.19195363788859782,-0.9775351453761797,-0.019673006795724913,0.020558251580788944,-1.0803615009253809,0.02493350688259137,0.010640413765183947,9.89490985
393,309.607,0.9272727272727272,-0.05332683260277547,-0.007086403885558558,-0.1273442821922604,-0.9901127705332688,-0.038344526678325164,0.02088886837660989,-1.081421413421631,0.0291061371999985,0.01961330000000121,9.894596037199998
394,309.681,0.8037383177570093,-0.05108360320639833,-0.009397916725586179,-0.08754566997783081,-0.9927785366286119,-0.04108943945169425,0.015773625791073154,-1.0814041233062743,0.02620336880000025,0.01961330000000121,9.8916932688
395,309.804,0.7757009345794392,-0.047354992182688425,-0.013240025905634105,-0.021393922648406394,-0.9972094721654683,-0.045651929602026346,0.007271263115108981,-1.0813753843307494,0.021378497000000624,0.01961330000000121,9.886868397
396,309.881,0.7254901960784313,-0.04489362354634833,-0.015258543862878272,0.01977035763659032,-0.9976741128799768,-0.04706253868200104,0.0013333403545889972,-1.0807960881546084,0.018372933201581645,0.01961330000000121,9.883862833201581
397,310.006,0.5882352941176471,-0.04060751943675456,-0.01765256049266877,0.08602981664416044,-0.99315679544876,-0.04605240339464828,-0.00971080913491805,-1.0785742837920964,0.013527750395257266,0.01961330000000121,9.879017650395257
398,310.088,0.2413793103448276,-0.03779583514085932,-0.019223035401812305,0.1294960217531532,-0.9901934352138799,-0.04538975464614446,-0.016955771200039133,-1.0771167801302874,0.010349310474306516,0.01961330000000121,9.875839210474306
399,310.206,0.38095238095238093,-0.03389952569838955,-0.020193395960579653,0.1919813408269295,-0.9783785236676036,-0.038706195589740894,-0.025949237770158666,-1.0763774984761287,0.005677534210524891,0.027871531578951426,9.86703831842105
400,310.286,0.45454545454545453,-0.031271628942855074,-0.020733573419219102,0.23433846364609884,-0.969679314441469,-0.033652023355728214,-0.031915793021923454,-1.0760002372718531,0.002501291295545947,0.03422401740890932,9.860685832591091
401,310.406,0.4444444444444444,-0.02755375078989865,-0.021057534368381602,0.29567925957600893,-0.9530358011461024,-0.027138600799939298,-0.03737389936985242,-1.0740195614818464,0.0,0.03922660000000121,9.853508234241245
402,310.486,0.3333333333333333,-0.025240193655902576,-0.020915178158534557,0.334955837414325,-0.9392913997007961,-0.02358314547151453,-0.03843978580797703,-1.0716566385462127,0.0,0.0392266000000012,9.850455580544747
403,310.604,0.4090909090909091,-0.02182769688325783,-0.020705202749010127,0.3928887897258503,-0.919018407568966,-0.018338848862087177,-0.04001196830421107,-1.0681713272161524,0.0,0.0392266000000012,9.845952916342414
404,310.68,0.5454545454545454,-0.019928526340581346,-0.020171652871897226,0.43009765190370536,-0.9002389405769905,-0.013818258515447164,-0.03944703467466215,-1.0684287023151853,-0.002986387242798911,0.03624021275720229,9.839903825514403
405,310.806,0.8571428571428571,-0.016793286024297145,-0.019269235811692074,0.49178137371744607,-0.8688481571116503,-0.0062723841993410825,-0.038439748463807474,-1.068967519473637,-0.008071316872427691,0.03115528312757351,9.829733966255146
406,310.883,0.5714285714285714,-0.015110632750839645,-0.018639997967899183,0.5251550222744384,-0.8498380973557645,-0.002796869548742969,-0.0378981690215639,-1.0015153134486843,-0.011135040836652892,0.0294199500000012,9.824934909163348
407,310.998,0.5714285714285714,-0.013038297884273018,-0.01755334904309887,0.5668352657902711,-0.8217735918406702,0.0002483822705879636,-0.03722906169069736,-0.7727461920316849,-0.015628127490039105,0.0294199500000012,9.820441822509961
408,311.084,0.5,-0.011488551810144826,-0.016740724629769888,0.5980048392021132,-0.800786222498946,0.002525701022435601,-0.03672868577370148,-0.6016666751459172,-0.018988174900397725,0.0294199500000012,9.817081775099602
409,311.186,0.75,-0.010487714941444456,-0.015307982945622137,0.6154224825752251,-0.7877112055871723,0.006992054954169108,-0.032730835586788326,-0.4484023344517377,-0.02298678759999827,0.0294199500000012,9.813083162400002
410,311.286,0.4,-0.009659212595281672,-0.013817801844709342,0.6289325441693078,-0.7770479613342631,0.01169283021241326,-0.02819042047858339,-0.3071981561184231,-0.02690944759999916,0.0294199500000012,9.809160502400001
411,311.414,0.4666666666666667,-0.009169441808970676,-0.012155256293242794,0.6409148016082142,-0.767424138923084,0.014007661588490393,-0.020995725005867497,-0.1845430371761501,-0.02941995,0.0294199500000012,9.804139497600001
412,311.493,0.38461538461538464,-0.009219397848086742,-0.011280294697871939,0.6450324519750406,-0.7639686960940818,0.013151419114321772,-0.015701700717212646,-0.14469192561508626,-0.02941995,0.029419950000001197,9.8010405962
413,311.613,0.6153846153846154,-0.009313813162776881,-0.010014416165568831,0.6508883650530068,-0.7590485498380128,0.011764812346548246,-0.008315041018650332,-0.08797195383906854,-0.02941995,0.028910004200002108,9.79684335
414,311.723,0.42857142857142855,-0.009540187558357744,-0.009330690295852465,0.6532478001357498,-0.7570178693434845,0.009845008168369699,-0.006485044034198093,-0.06474997559189999,-0.02941995,0.02459507820000157,9.79684335
415,311.806,0.5714285714285714,-0.009710997329568677,-0.008814788048703094,0.6550281011527277,-0.7554856286067047,0.008396428652108406,-0.005104228127748437,-0.04722793745995403,-0.02941995,0.021339270400002747,9.79684335
416,311.893,1.0,-0.009868339178808545,-0.008373449187118433,0.6563446180087908,-0.7543493389426936,0.007221003185071875,-0.004611312946860201,-0.03439502813853726,-0.031120296572578716,0.021313646572579913,9.798543696572578
417,312.006,1.0,-0.010043862580758567,-0.007932358906935059,0.6573241514737934,-0.7534978511826814,0.00615012111713131,-0.00523960244120825,-0.025081415660683042,-0.03558864919354661,0.02578199919354781,9.803012049193546
418,312.096,0.5,-0.010183659980541819,-0.007581048064311005,0.6581043108706984,-0.752819675090636,0.005297206195762412,-0.005740010003078557,-0.01766349421814163,-0.03914751411290285,0.02934086411290405,9.806570914112902
419,312.187,0.625,-0.010216092729433489,-0.007222280130159843,0.6583495241673143,-0.7526081208619141,0.004770279333247685,-0.005513726728059245,-0.011347353514060783,-0.0392266,0.02594269163346706,9.80665
420,312.286,0.625,-0.010248713941352036,-0.006831885280416186,0.658603004680705,-0.7523895603985326,0.004205230495473151,-0.005249648740834196,-0.0045048984294508276,-0.0392266,0.022074730079682248,9.80665
421,312.406,0.42857142857142855,-0.01023359461930223,-0.00640851035561924,0.6587568482260351,-0.7522589373272673,0.003450293020587184,-0.0048176913822846525,0.0008556615638248121,-0.03702589507873969,0.017412595078740892,9.804449295078738
422,312.485,0.42857142857142855,-0.0101838685889159,-0.006166047105634723,0.6587465058288848,-0.7522706637823238,0.002902336627626182,-0.004451924527987891,0.0022503170221459786,-0.03397579527559001,0.014362495275591216,9.80139919527559
423,312.606,0.8888888888888888,-0.010107216018656879,-0.005796967245241186,0.6587263824538327,-0.7522923533004594,0.0020777840282760786,-0.003913323351767839,0.004327782668218405,-0.029538578830644608,0.009925278830645808,9.796961978830645
424,312.726,0.7142857142857143,-0.010012086163022751,-0.005520184727305464,0.6585393729523704,-0.7524593154452962,0.0018343404944678266,-0.004222688357150469,0.004100158343076595,-0.034283732056451424,0.014670432056452624,9.801707132056451
425,312.798,0.7142857142857143,-0.009955008249642275,-0.005354115216544031,0.658427167251493,-0.7525594927321984,0.0016882743741828752,-0.004408307360380048,0.00396358374799151,-0.03713082399193551,0.017517523991936713,9.804554223991936
426,312.893,0.875,-0.009851401292382931,-0.005131708008471459,0.6582530708008045,-0.752714665377008,0.0015194754339754972,-0.0046701685562729025,0.0036169000249357606,-0.03757908280000105,0.0196133000000012,9.808297517199998
427,313.006,0.875,-0.009685691444159815,-0.004862225619275419,0.6580068906486066,-0.7529337536266495,0.001354608309920917,-0.005007083397358574,0.002954640262760382,-0.03314647700000107,0.0196133000000012,9.812730122999998
428,313.111,0.5,-0.009534980992210732,-0.004624609263711846,0.6577715071307517,-0.7531429486435506,0.0011293646763079657,-0.005225179865956366,0.0025080452486871676,-0.029812215999999645,0.020005566000000845,9.81645665
429,313.203,0.8333333333333334,-0.009430129855049412,-0.0045228539089641395,0.6575100624215405,-0.7533730018239375,0.00033229020657039106,-0.004625795066356819,0.00352162804082009,-0.03342106319999904,0.02361441320000024,9.81645665
430,313.286,0.5714285714285714,-0.009335535894349479,-0.0044310528823982296,0.6572741938251869,-0.7535805498018954,-0.00038680958678016537,-0.004085045736283049,0.0044360559945926335,-0.03667687100000009,0.02687022100000129,9.81645665
431,313.381,0.7142857142857143,-0.009210508937095718,-0.004323677350789501,0.6569923582405116,-0.7538284703129137,-0.0008227466465906465,-0.003691872898489209,0.005482648685574232,-0.03804980200000107,0.0294199500000012,9.815279852
432,313.486,0.6666666666666666,-0.009032193213926964,-0.004199486285866493,0.6566524409913819,-0.7541273105956298,-0.00037749981391247496,-0.0037979423347860477,0.0066393091343342255,-0.03393100900000036,0.0294199500000012,9.811161059
433,313.643,0.6666666666666666,-0.008761632375910225,-0.004042099501666366,0.656138945959434,-0.7545782756158314,-0.000361669689416584,-0.003780211243778552,0.008139538645744175,-0.03106746719999895,0.02777243280000225,9.808297517199998
434,313.707,0.6666666666666666,-0.008646946410161685,-0.004009538741577535,0.6559237768752854,-0.7547667156282951,-0.0010806352794169767,-0.003576169524341838,0.008495212435722321,-0.033577969599999785,0.025261930400001416,9.8108080196
435,313.81,0.5555555555555556,-0.008462373684035173,-0.003957136268309585,0.6555774891304836,-0.755069986273354,-0.0022377205258235695,-0.003247789882123459,0.009067624941468257,-0.037618309400000126,0.021221590600001075,9.814848359399999
436,313.904,0.3333333333333333,-0.008307749141572873,-0.003878195612519608,0.6552509106392207,-0.7553554889309324,-0.0025891229780390917,-0.0033357328865676996,0.008946982163935918,-0.0392266,0.021692309800001093,9.8143776402
437,314.005,0.6666666666666666,-0.00815309747343849,-0.0037675121539410034,0.654891244309603,-0.7556695098881772,-0.00238105368055404,-0.0037524193078279336,0.008282866574823881,-0.0392266,0.025654196400001057,9.8104157536
438,314.113,0.8333333333333334,-0.007989982449337322,-0.0036443172141589313,0.6545109072751345,-0.7560015126302583,-0.0021547764616717748,-0.0041651956473044505,0.007525699139814683,-0.0392266,0.02895664370078862,9.80665
439,314.206,0.6666666666666666,-0.007865057260988758,-0.0035048880465160252,0.654212718517763,-0.7562613498002959,-0.0019338365037389969,-0.004294759828567988,0.006549750511556405,-0.0392266,0.025366019881890568,9.80665
440,314.286,0.6,-0.007757594733377132,-0.0033849489775759373,0.653956212059809,-0.7564848656454894,-0.001743780625947434,-0.004406212887719374,0.005710224809829181,-0.0392266,0.02227731122047409,9.80665
441,314.395,0.6,-0.007594395329674177,-0.003220401486861482,0.653601659305645,-0.7567936432554297,-0.0015928616543651015,-0.0046116198273563344,0.005236876018058612,-0.0392266,0.02120142145748991,9.80665
442,314.49,0.625,-0.007426927017283997,-0.0030752888829465464,0.6532850339619699,-0.7570691318398993,-0.001623746684020925,-0.004871156683138908,0.005832388567236844,-0.0392266,0.024973209919030105,9.80665
443,314.606,0.6666666666666666,-0.007223491558429907,-0.0029003371420836727,0.6528987598320953,-0.7574051738143968,-0.0016310381805522839,-0.005126123856752866,0.006550277397036629,-0.0392266,0.02926304360000045,9.8068069064
444,314.686,0.6666666666666666,-0.007103508905072739,-0.0028229047750293734,0.652638969548623,-0.7576302824705389,-0.001048631622455991,-0.004105861466377932,0.006866494938731206,-0.0392266,0.026124915600001075,9.8099450344
445,314.794,0.6666666666666666,-0.006941532323040523,-0.002718371079506045,0.6522882526659353,-0.757934179156331,-0.0002623827690258092,-0.0027285072393714443,0.007293388620018988,-0.0392266,0.021888442800000914,9.814181507199999
446,314.886,0.8333333333333334,-0.006799424869194725,-0.002628945737249433,0.6519916710949343,-0.7581909786783517,-8.155907545106831e-05,-0.0021232191187542824,0.007531576678602118,-0.0392266,0.0196133000000012,9.815128259163345
447,314.978,0.8333333333333334,-0.0066502765522864415,-0.0025388753665117497,0.651698803664803,-0.7584442377566226,-0.000734816064160301,-0.0024868954229076475,0.007555741130326141,-0.0392266,0.0196133000000012,9.811533789840636
448,315.08,1.0,-0.006484916461801183,-0.002439014738085195,0.6513741028183533,-0.7587250249955751,-0.0014590792472943977,-0.0028901017601211322,0.007582532152889729,-0.0392266,0.0196133000000012,9.807548617330678
449,315.2,0.6666666666666666,-0.006375573324273365,-0.002285431869379947,0.6510025196981575,-0.759045170129133,-0.00016342195210966603,-0.0027664535207651613,0.008036197133242573,-0.03540633875502036,0.02343356124498084,9.80282973875502
450,315.286,0.8333333333333334,-0.006311688571553133,-0.0021692296658975476,0.6507379887848685,-0.7592728754002994,0.001130099209160409,-0.002576218581343233,0.0084330595311631,-0.03201930301204752,0.02682059698795368,9.799442703012048
451,315.406,0.6666666666666666,-0.006230437064692262,-0.0020518674347187495,0.6503928310145546,-0.7595696168577665,0.0018397224638609481,-0.002573524996638378,0.007793424859642449,-0.031538186400001195,0.029419950000001197,9.7989615864
452,315.486,0.5625,-0.006182698289317589,-0.0020101136629437186,0.6501822448307487,-0.7597503441178041,0.0014203461203723382,-0.0027858222872019192,0.006394604876637204,-0.034676314400000574,0.0294199500000012,9.8020997144
453,315.593,0.6666666666666666,-0.0061188476772539345,-0.0019542679931945895,0.6499005858099082,-0.7599920668281045,0.0008594302609560658,-0.003069769913330786,0.004523683149366831,-0.03887356060000166,0.0294199500000012,9.806296960600001
454,315.7,0.5,-0.006016617224100038,-0.001876685283185866,0.6495663090097921,-0.7602786384455962,0.0009756598202698745,-0.0031481405839802767,0.004214785619074076,-0.0392266,0.025560304618474944,9.80665
455,315.789,0.5,-0.005928652674689235,-0.0018104934306258677,0.6492842463460677,-0.7605204276523884,0.0011240622326993402,-0.0031976238805725833,0.004077171383193707,-0.0392266,0.022055116465864888,9.80665
456,315.886,0.8333333333333334,-0.005840307539534688,-0.0017345864627870313,0.6489913755654114,-0.7607713015523064,0.0009918409598420428,-0.003115461363796065,0.004432652954199567,-0.0392266,0.0196133000000012,9.80665
457,316.018,0.7142857142857143,-0.005738228317891962,-0.0016222137703892376,0.6486278939951935,-0.7610822048293043,0.00010328209729069189,-0.0026755844628649104,0.006134878444606037,-0.0392266,0.0196133000000012,9.80665
458,316.086,1.0,-0.005685642052197172,-0.001564324807638802,0.6484406459135658,-0.7612423671235156,-0.00035446034705439566,-0.0024489812108698496,0.007011782485119326,-0.0392266,0.0196133000000012,9.80665
459,316.206,0.75,-0.005562841776403581,-0.0014834319789105688,0.6481714192859606,-0.7614725829432331,-0.0001697448341758111,-0.002686656741354392,0.006779625404000407,-0.0392266,0.0196133000000012,9.80665
460,316.295,0.7142857142857143,-0.005470997638660759,-0.0014239802891635935,0.6479733083284038,-0.7616419856263202,-7.36468786167267e-06,-0.0028792382662277826,0.006561928586892059,-0.0392266,0.0196133000000012,9.80665
461,316.406,0.7142857142857143,-0.0053912226037459736,-0.0012892482232301934,0.6477337697414682,-0.7618465202769188,0.0008341262179181435,-0.0030562003714541025,0.005745337086829595,-0.0392266,0.02383289442231378,9.808759797211156
462,316.496,1.0,-0.005356300089587226,-0.0011281544488389926,0.6475460055156905,-0.7620065882725612,0.0020632839384134415,-0.003145572664475878,0.004616724260418709,-0.0392266,0.030865551792828825,9.812276125896414
463,316.606,0.75,-0.005315469264466998,-0.0009329344356756241,0.6473168155492764,-0.7622019480153798,0.0035160344082817646,-0.003244270060031922,0.0032711399029042884,-0.0392266,0.03899029518072517,9.81645665
464,316.686,0.6666666666666666,-0.005333820302738927,-0.0008343367097980215,0.6471579044917828,-0.7623367928509117,0.0032871947623789853,-0.003042767910907713,0.003170097013935471,-0.0392266,0.032688833333336026,9.81645665
465,316.806,0.8333333333333334,-0.005361346860146827,-0.0006864401209815828,0.6469195379055422,-0.7625390601042098,0.002943935293524735,-0.0027405146872213283,0.003018532680482209,-0.0392266,0.023236640562250072,9.81645665
466,316.881,0.8333333333333334,-0.005370847959008567,-0.0006011919731493645,0.646778416269196,-0.7626587925198793,0.0028290215284667054,-0.0024728290856786553,0.002981622011349016,-0.0392266,0.0196133000000012,9.814199563888888
467,317.008,0.8,-0.005366246406789023,-0.0004761431509948714,0.6465605553091095,-0.762843584681097,0.0029020203898350396,-0.0018079540182259816,0.0030744151833156748,-0.0392266,0.019613300000001197,9.804315083333332
468,317.086,0.6,-0.00536342025660694,-0.0003993415121912993,0.6464267509399224,-0.7629570790793252,0.00294685433618726,-0.0013996055516013715,0.003131406265310964,-0.0392266,0.019613300000001197,9.798244299999997
469,317.206,1.0,-0.005268681956100506,-0.00030823533804338877,0.6462414781723185,-0.7631146821483943,0.0009720000657192467,-0.002493189364469996,0.003790470743439786,-0.0392266,0.019613300000001197,9.800860531927711
470,317.275,1.0,-0.005205035468569204,-0.0002585940869285259,0.6461370346066179,-0.763203578537928,-0.00037092972877781445,-0.0032967133559732627,0.004227411680776161,-0.0392266,0.0196133000000012,9.803578037349396
471,317.388,0.75,-0.0051146103264442435,-0.000180230042403573,0.6459713697600281,-0.763344462556857,-0.0012518062378726602,-0.004043531083720923,0.0038273123749706073,-0.0392266,0.02098076115537857,9.80665
472,317.509,1.0,-0.005050732909350885,-0.00010331605494331521,0.6458068159583323,-0.7634841050204672,0.0009511475617336933,-0.0034851550080059295,0.0007365141676147352,-0.0392266,0.025708269721117543,9.80665
473,317.62,0.8,-0.004999197040202263,-2.0189276953738767e-05,0.6456574329258925,-0.7636108098796438,0.00263849657679356,-0.0030607989848783733,-0.001469053971093063,-0.03860395555555482,0.02879730555555602,9.80665
474,317.698,0.5555555555555556,-0.004992449172246073,9.066706787329377e-05,0.6455590169188663,-0.7636940174238376,0.002432562872797039,-0.003129236265233458,-0.00039123236811511135,-0.03556856388888926,0.02576191388889046,9.80665
475,317.789,0.8,-0.004984576659630514,0.0002199994701715523,0.6454441982440023,-0.7637910928920635,0.0021923068848009983,-0.0032090797589810903,0.0008662261686930225,-0.032027273611111295,0.022220623611112496,9.80665
476,317.885,0.8,-0.004955797550067855,0.00033075225770495977,0.6453236026216738,-0.7638931571664657,0.0017621305481757715,-0.003059641933495388,0.002305909630423094,-0.030552989243027597,0.020746339243028798,9.807783039243027
477,317.994,0.6666666666666666,-0.004869413681890247,0.00038912374901217504,0.6451880712858096,-0.764008137611081,0.0008101299408807064,-0.0022770080472382373,0.004237323257779285,-0.03481165398406435,0.02500500398406555,9.812041703984063
478,318.066,0.8333333333333334,-0.004812352778139963,0.00042768106437102735,0.6450985459997342,-0.7640840879965148,0.00018128550303511248,-0.001760038874665272,0.005513119415297576,-0.03762471693226903,0.027818066932270232,9.814854766932267
479,318.206,0.8,-0.004780964662443883,0.0005095704494482583,0.6449479812728839,-0.7642113277252833,0.0015814009684361648,-0.002270322705916963,0.004709269771322143,-0.0392266,0.025489349392713488,9.812526049392712
480,318.285,0.8,-0.004781846349476465,0.0005573958812484517,0.6448685144147573,-0.7642783502110878,0.0029844149837825865,-0.0029124323554859635,0.0034880856342368047,-0.0392266,0.022352809514170124,9.809389509514169
481,318.401,0.6666666666666666,-0.00478579257054697,0.0006522559010589528,0.6447551275129708,-0.7643739070691584,0.003823017351329117,-0.003142953986301839,0.0021608353573827526,-0.037382949799999,0.0233006004000032,9.80665
482,318.516,0.6666666666666666,-0.004793563976908939,0.0007821531482024763,0.6446475189798446,-0.7644644835923778,0.0028765552714464203,-0.00233475278690433,0.0015230835024265521,-0.032871890799998645,0.03232271840000391,9.80665
483,318.583,0.6666666666666666,-0.004798091665832869,0.0008578324139295746,0.644584825312719,-0.7645172542624273,0.0023251382336017027,-0.0018638877402988115,0.0011515237260607547,-0.030243708599998358,0.03757908280000448,9.80665
484,318.702,0.8333333333333334,-0.004830350866538651,0.0009675533833944034,0.6445009140346447,-0.7645876532541463,0.0007864174442363927,-0.001319618239998764,0.0006253831023349807,-0.03326415680000052,0.0392266000000012,9.80665
485,318.806,0.3076923076923077,-0.004863079108681202,0.001058819329005601,0.6444327186620252,-0.7646448096706725,-0.0006630969708785162,-0.0008986464738845898,0.00019061896670610474,-0.03734372319999993,0.0392266000000012,9.80665
486,318.926,0.8333333333333334,-0.004862623150226309,0.0010420324732066868,0.6443381840138199,-0.7647244913388067,-0.0012992742573842394,-0.0004376354627311128,0.000758610666729539,-0.03640228479999989,0.03640228480000109,9.80665
487,319.004,0.5,-0.004845765074162222,0.0009782137399522326,0.644269869164574,-0.7647822349376893,-0.0012637091102078403,-0.00014869275037186606,0.0015913170762363736,-0.03334260999999866,0.03334260999999986,9.80665
488,319.098,0.6666666666666666,-0.004825448931213204,0.0009013039844917723,0.6441875410129186,-0.764851823377368,-0.0012208485482260456,0.0001995202619583462,0.002594835056923631,-0.029655309599998896,0.029655309600000096,9.80665
489,319.206,1.0,-0.004779369572129632,0.0008982623732121485,0.6441089754637391,-0.7649182716450352,-0.0007826890866551705,-0.0005525485289857067,0.0029601129865925303,-0.033437131927711736,0.021385586144577737,9.80665
490,319.286,0.6666666666666666,-0.004744245976834179,0.0008997270963867492,0.6440514769846991,-0.7649669041566969,-0.0004411803172287911,-0.0011598388454035213,0.0031963667830444817,-0.036587862851405584,0.015084124297190029,9.80665
491,319.38,0.8333333333333334,-0.004701550588820375,0.0009184282489911688,0.6439863865531752,-0.7650219459169868,3.234337366708398e-05,-0.0016768541910485981,0.0030254778102973556,-0.0392266,0.01085736250000065,9.80665
492,319.501,0.8235294117647058,-0.004642039306916055,0.0009967396593774402,0.6439104906237423,-0.7650860850223413,0.0008726663987282692,-0.001714542131161394,0.0013729246695427639,-0.0392266,0.015566111111110838,9.80665
493,319.623,0.6,-0.004584847795242347,0.0010754617918043244,0.6438340703753656,-0.7651506436294518,0.0015121718040256812,-0.00184911776768155,7.3374610809019214e-06,-0.038523334262949224,0.0196133000000012,9.805243468525898
494,319.726,0.5,-0.004550278025623386,0.0011407703815096858,0.6437700536814103,-0.7652046086541805,0.0010386252575424442,-0.0024338298629360405,0.00032085255048127823,-0.034499091434263246,0.0196133000000012,9.797194982868525
495,319.801,0.6666666666666666,-0.004525105863279488,0.0011883251798388212,0.6437234395838699,-0.7652439035750994,0.000693809811074149,-0.0028595910973445503,0.0005491402369378092,-0.031568817529880944,0.019613300000001197,9.791334435059762
496,319.902,0.75,-0.00446429343264981,0.0012197621018065618,0.6436637823133292,-0.7652943908708805,0.0002896371372343705,-0.002982158019360818,-5.8253056343335894e-05,-0.03123162028112402,0.02142497028112522,9.790660040562248
497,319.969,0.7142857142857143,-0.004402605593323175,0.0012147566238485845,0.6436266794625957,-0.7653259551832612,6.925372685492729e-05,-0.0027059170438059467,-0.0011867723094828664,-0.03387035742971843,0.02406370742971963,9.795937514859437
498,320.109,0.8571428571428571,-0.004275001655889304,0.0012041645463499728,0.6435478980669105,-0.7653929550279814,-0.00033317183179681805,-0.002133365788226279,-0.0034488769381706753,-0.0392266,0.0294199500000012,9.80665
499,320.208,0.5714285714285714,-0.004215927595049238,0.001193479864177911,0.6434620614426485,-0.7654654478195321,0.00077859498467688,-0.001840738984533491,-0.002740506706128426,-0.0392266,0.0294199500000012,9.80665
500,320.29,0.5,-0.004166997564858502,0.0011846299254091375,0.6433909644407345,-0.7655254923539477,0.0016994523478162079,-0.0015983612279395969,-0.0021537758068614285,-0.0392266,0.0294199500000012,9.80665
501,320.414,0.8333333333333334,-0.004136430486651179,0.001182350645840768,0.6432946128907486,-0.765606637963823,0.0021268582517603527,-0.0014776625547999256,-0.0011713679573204308,-0.0392266,0.0294199500000012,9.804365720080321
502,320.524,0.8571428571428571,-0.0041531497830672,0.0011915372425091015,0.6432204062576581,-0.765668877257603,0.0015317734740450599,-0.0016187391908704574,-0.0002038211797376118,-0.0392266,0.029419950000001197,9.80003346506024
503,320.616,0.8,-0.004166108222643274,0.0012014462203223527,0.6431602935717069,-0.7657192928948356,0.0009788758493963318,-0.001738972282968413,0.0005299095902591314,-0.0392266,0.029419950000001197,9.797274842599998
504,320.707,0.8,-0.004171460327001963,0.0012274581739326407,0.6431150448990935,-0.7657572223942124,3.000367898519621e-05,-0.001874226305633747,0.0007058250531553749,-0.0392266,0.029419950000001197,9.800844463199999
505,320.804,0.8,-0.004177165317362323,0.001255185201407335,0.6430668127975168,-0.7657976527397019,-0.0009814314916725278,-0.002018398175947302,0.0008933393377809857,-0.0392266,0.0294199500000012,9.804649443399997
506,320.887,0.7,-0.004179867498556585,0.0012771864843071374,0.6430218224901701,-0.7658353794597662,-0.0012110301272099024,-0.001979868317327229,0.00101334168260315,-0.040476850199202614,0.03067020019920381,9.80665
507,320.995,0.625,-0.004178863942914252,0.0013022396326085534,0.6429555673212666,-0.7658909641171238,-0.00019114945256392866,-0.0015939992900744866,0.0010856083980149245,-0.044696444621513925,0.034889794621515126,9.80665
508,321.087,0.5,-0.004178009062181895,0.0013235812033838292,0.6428991277329412,-0.7659383140104282,0.0006776377888009812,-0.0012652960446370332,0.0011471689333656823,-0.04829091394422282,0.03848426394422402,9.80665
509,321.219,0.5,-0.004104107173576693,0.001369982118845923,0.6428314208328327,-0.7659954494561766,0.0011283843838609743,-0.001962219708599147,0.0006248170547187354,-0.04903325,0.03479399420000122,9.8110826058
510,321.297,0.6,-0.004053217117845086,0.00139896872537412,0.6427927308323247,-0.7660281381265127,0.0013156693852507321,-0.0024901402955876894,0.00025547982938573064,-0.04903325,0.03173431939999999,9.8141422806
511,321.421,0.6666666666666666,-0.00398427161649921,0.001455405785457903,0.6427457960528273,-0.7660677786191596,0.0012975745301961098,-0.002647279670825677,0.00041220875445790593,-0.046493679282868954,0.0294199500000012,9.811377508565737
512,321.524,0.3333333333333333,-0.003936017318840018,0.00151009291225109,0.6427177970616252,-0.7660914122815451,0.0010444177217240208,-0.0022635093224105604,0.0011032585576880567,-0.042469436454183884,0.029419950000001197,9.803329022908366
513,321.619,0.3333333333333333,-0.0038932404035377263,0.0015504600804801824,0.6426918086340832,-0.7661133577427088,0.000892467194850131,-0.0019286760901350772,0.001543654992086118,-0.0392266,0.029419950000001197,9.79684335
514,321.721,1.0,-0.003860155138017465,0.0015190007390429843,0.6426626864979668,-0.7661380150479123,0.0013348889628015705,-0.0017112342061520675,0.0005536689934117793,-0.0392266,0.029419950000001197,9.79684335
515,321.777,0.5,-0.003841990678516147,0.0015017289437441316,0.6426466978742166,-0.7661515523919457,0.0015777871883435228,-0.0015918543482790497,1.0147268649429806e-05,-0.0392266,0.029419950000001197,9.79684335
516,321.886,0.5,-0.003826124657190874,0.0014850698862620697,0.6426057893373122,-0.7661859760193941,0.0018930848404441116,-0.0013961266301086238,-0.0007161241348670815,-0.0392266,0.029419950000001197,9.79812247826087
517,322.086,1.0,-0.0038793715974382212,0.0015261682870973412,0.6424893669713346,-0.766283257944782,0.0018061155088893671,-0.0011918102860406397,-0.0006472439957937173,-0.0392266,0.0294199500000012,9.805874770750988
518,322.299,1.0,-0.003920228093285175,0.0014694493068397678,0.6423518566387678,-0.7663984312189049,-6.311541143789014e-05,-0.0006308029699139755,0.0004714454528874707,-0.0392266,0.0294199500000012,9.80665
519,322.695,1.0,-0.0037458832012667582,0.0014604768729516568,0.6421170966313764,-0.7665960184694349,-0.00011381864111639442,-0.0031908451476030907,-0.00014485965209419885,-0.03580205555555626,0.0294199500000012,9.803225455555555
520,322.975,1.0,-0.0004783234732627286,0.0055686405734753554,0.6420702391473133,-0.7666057494830069,0.0018393228873615814,-0.10404490572590333,0.0007142975693567561,-0.03397023560000166,0.029419950000001197,9.79684335
521,323.298,1.0,0.016148595603728874,0.026331272710177975,0.641920277244872,-0.7660601856231906,0.0031836966434156976,-0.18116076129028524,-0.003940058361559444,-0.0392266,0.021976348192772145,9.774512544578313
522,323.402,0.7,0.02173560143982309,0.033245946730335076,0.6418617959947389,-0.7657744715653866,0.0027478724441316873,-0.15117423685201095,-0.005135825489195178,-0.035760795983937436,0.019613300000001197,9.770889204016063
523,323.486,0.36363636363636365,0.02456206960640668,0.03665702338414637,0.6418535906487164,-0.7655283971066753,0.0021222149317405353,-0.11781539651285777,-0.0048193951571233904,-0.029144261044178776,0.019613300000001197,9.77750573895582
524,323.806,1.0,0.03207160814568487,0.0456336452727364,0.6421066090395534,-0.7645787834609434,0.003194070530123567,-0.05485022023320532,-0.005543444070964781,-0.02741939339999825,0.004001113200004694,9.779230606600002
525,324.326,1.0,0.03917405503416216,0.05372283217794075,0.6433010811864397,-0.7627193708005494,-0.0006940530457067696,-0.031500464826822575,-0.012495708566158892,-0.020829324600000233,0.011022674600001434,9.804217950799998
526,324.41,0.3333333333333333,0.03997063656979808,0.05450967152327232,0.6435583662703561,-0.7624054678713302,-0.0018229127986717402,-0.027843375149157197,-0.01237637492213324,-0.0196133,0.007752292490119772,9.814867430039525
527,324.478,1.0,0.04053426448825422,0.05501786297123481,0.6437774789584879,-0.7621536534784955,-0.002909347425093272,-0.025106255855897694,-0.011446231895167061,-0.0196133,0.005116513043479944,9.825410547826085
528,324.624,1.0,0.04169727995087607,0.05605302958942641,0.6442535748119521,-0.7616144167312142,-0.0051049712635577345,-0.019234866432845193,-0.009619047179818136,-0.0196133,1.2059066347433507e-15,9.846974944800001
529,324.806,1.0,0.042593164669797234,0.05668583496850666,0.6449134477770718,-0.7609589492827998,-0.006231583826243689,-0.011978814333678508,-0.009338078737258957,-0.0196133,1.2076552445201344e-15,9.861253427199998
530,324.907,0.4,0.042982127248014174,0.056898212098367915,0.6453026607911633,-0.760591383309152,-0.006246185307259251,-0.008514726975639568,-0.009300336053195236,-0.0196133,1.208859635776053e-15,9.871088028137647
531,325.095,1.0,0.04347472976260148,0.05699669884923365,0.6460763669109032,-0.7598990368258657,-0.004967512585494199,-0.00326995585898035,-0.009482822369648378,-0.0196133,1.2116019276580501e-15,9.893480540688259
532,325.61,1.0,0.04372614449599836,0.05588685683276649,0.6481681784619489,-0.7581838081112525,-0.0027311310194524413,0.0039597097933891864,-0.007925258523009649,-0.00980665,1.2129779358186976e-15,9.9047165
533,325.728,0.875,0.043640490407089026,0.0554390614837348,0.6486032252549095,-0.7578491331313886,-0.0034130473497762277,0.004331929526894021,-0.0054426561278029415,-0.00980665,1.2129779358186976e-15,9.9047165
534,325.887,1.0,0.043527362245091586,0.05483288652136438,0.6491342228304627,-0.7574452815461774,-0.0042738158293068275,0.0048233033660799165,-0.002516791288275296,-0.00980665,1.2129779358186976e-15,9.9047165
535,326.006,0.0,0.043450367243530935,0.05436984889071418,0.6493464069534362,-0.7573010787346524,-0.004723162807524083,0.005156918846070676,-0.0017338763196023447,-0.00980665,1.2129779358186976e-15,9.9047165
536,326.107,0.0,0.04338501854472731,0.05397685056554017,0.6495264959989852,-0.7571786881131057,-0.005104541335254997,0.005440071480348772,-0.0010693854638373793,-0.00980665,1.2129779358186976e-15,9.9047165
537,326.39,1.0,0.04302340632627262,0.052624262083058766,0.6497929073540644,-0.7570647789392673,-0.003078682470675124,0.015862586244424624,0.0025402324590909787,-0.008694964979758356,1.2129779358186976e-15,9.9047165
538,326.806,1.0,0.03890052040771195,0.047313644099246994,0.6501786537070955,-0.7573066862621565,0.004144230877049316,0.025912909194826902,0.0016118691414594717,0.0,1.2120315728351083e-15,9.896988859799999
539,327.206,1.0,0.03593269406384649,0.04496073060292194,0.6503227661298008,-0.7574740604043423,0.003967346233316539,0.01310738955810635,-0.0009605851853269911,0.0,1.2117769675654117e-15,9.89490985
540,327.312,0.6,0.03528745976837932,0.0446020967548937,0.6503437400618324,-0.7575077582669755,0.006192333827727201,0.012214275475591157,-0.0019783890908587026,0.0,1.2117769675654117e-15,9.89490985
541,327.488,1.0,0.03417679338370311,0.04403701491355337,0.6503599407235192,-0.7575776133994463,0.006993441648781272,0.011982348095625664,0.0008099014116455926,0.0,1.2117769675654117e-15,9.89490985
542,327.726,1.0,0.03284319209784103,0.04343294579479841,0.6504043691959388,-0.7576335826126762,0.007089015385136051,0.009201135156675706,0.002238707933574657,0.0,1.2112149144228738e-15,9.890320337799999
