,time,img_sim,orientation.x,orientation.y,orientation.z,orientation.w,angular_velocity.x,angular_velocity.y,angular_velocity.z,linear_acceleration.x,linear_acceleration.y,linear_acceleration.z
0,290.107,0.0,-0.0008767877313293496,0.00347009325714,0.6580457163392238,-0.7529694623476008,0.00039343631106158024,-0.000958939536327424,0.0027567999954011676,0.0,1.2009682532858392e-15,9.80665
1,290.218,1.0,-0.0008391120021039736,0.0033719566986450955,0.6580477871320842,-0.7529681492118458,1.9829500624810666e-05,-0.0003608747900118326,0.0016233310770797289,0.0,1.2009682532858392e-15,9.80665
2,290.32,0.8571428571428571,-0.000820356756237848,0.003359881571429866,0.6580510719731444,-0.7529653540563622,0.0006444696197843198,-0.0005601688698156922,0.00022267868215455422,0.0,1.2009682532858392e-15,9.80665
3,290.398,1.0,-0.0008071886310036282,0.00335642767359335,0.6580536861799942,-0.7529630990302189,0.0011937678986382997,-0.0007679892316149639,-0.0008749821969122455,0.0,1.2009682532858392e-15,9.80665
4,290.5,0.8888888888888888,-0.0007939146822489391,0.0033707939341337764,0.6580587216426833,-0.7529586462107094,0.002038062085401209,-0.0012087315558473998,-0.0020810790924751647,0.0,1.2010743629307078e-15,9.807516451004016
5,290.602,0.8571428571428571,-0.0007949894873881375,0.003453825271666183,0.6580696366853763,-0.7529487245214972,0.0033404691917183794,-0.0022639365554467574,-0.0024533367427776007,0.0,1.201566325829644e-15,9.811533632931726
6,290.706,1.0,-0.000796085367137909,0.0035384846746404556,0.6580807657485143,-0.7529386082893592,0.004668413692277917,-0.003339831849156598,-0.002832893562694054,0.0,1.2020679350599323e-15,9.81562958313253
7,290.785,0.8571428571428571,-0.0007961665349350729,0.003644390968691784,0.6580870156224253,-0.7529326252644641,0.004655382182448862,-0.0038055252544584015,-0.002748885639011722,0.0,1.2018905969043625e-15,9.814181507199997
8,290.936,1.0,-0.0007958017511817814,0.003875607393583969,0.6580974363387198,-0.7529223668342844,0.003923359828069791,-0.0044523397870361945,-0.002330643744207909,0.0,1.201165212079378e-15,9.8082582906
9,291.006,0.8571428571428571,-0.0007812515727744312,0.003940360533163381,0.6581001662072582,-0.7529196722189123,0.002972046148024723,-0.004112018353910693,-0.0020101227291092153,0.0,1.200829495997611e-15,9.805516960756972
10,291.122,0.8571428571428571,-0.0007234470481220865,0.003948250616763637,0.6580997678173569,-0.752920035363712,-3.8164425678908175e-05,-0.0020482320694687217,-0.0011822881438652985,0.0,1.2002744668446978e-15,9.800984803784859
11,291.195,0.8571428571428571,-0.0006870700627805484,0.00395321592799483,0.6580995171064707,-0.7529202638944911,-0.0019325210798187527,-0.0007494700111569472,-0.0006613232755655865,0.0,1.199925181257089e-15,9.798132670517928
12,291.349,1.0,-0.0006517852131828611,0.003922823056137847,0.6581047615352856,-0.7529158704089502,-0.001371895150747374,-0.0006866678120567569,-0.0007117486037313486,0.0,1.2003485536671437e-15,9.8015897686
13,291.433,0.8,-0.0006387058862988782,0.003900165642692818,0.6581084809746686,-0.7529127486676782,-0.00038820729358140377,-0.0010506512084975151,-0.0009102454595267394,0.0,1.2007520790002476e-15,9.804884802999998
14,291.514,1.0,-0.000622153298156101,0.0038988310281508716,0.6581090595057997,-0.7529122635357728,0.0008024216378107918,-0.0015305071603506915,-0.0010022170152515165,0.0,1.2007953138573661e-15,9.805237842399999
15,291.656,1.0,-0.0005845003971711932,0.0039414439876936744,0.6581034819600574,-0.7529169464965402,0.0034201651848852132,-0.002654140722006538,-0.0009455509465187796,0.0,1.2001131638894997e-15,9.7996676652
16,291.73,1.0,-0.0005647623242659104,0.0039614112265462685,0.6581006194771858,-0.752919359906097,0.004710565124493492,-0.003208458990385436,-0.000889749215188419,0.0,1.1997768545007072e-15,9.79692149063745
17,291.792,0.7692307692307693,-0.0005447220289791492,0.003910591928867517,0.6580995521003963,-0.7529205673739596,0.0035664590476345943,-0.002730704819880267,-5.0590370793249175e-05,0.0,1.2000735080134707e-15,9.799343850398404
18,291.922,0.8666666666666667,-0.0005027020549907319,0.0038040353369603384,0.6580973140522892,-0.7529230991614134,0.0011675269509922636,-0.001728962204303782,0.001708936238424415,0.0,1.2006955234434597e-15,9.80442299183267
19,292.002,1.0,-0.0004792303344443078,0.0037568074429514117,0.6580962710962087,-0.7529242687357891,3.610370098604706e-05,-0.0013010648488998532,0.002382671705447033,0.0,1.2009682532858392e-15,9.80665
20,292.098,0.8571428571428571,-0.0004581621823523537,0.003754691574618313,0.65809601374081,-0.7529245170124647,-0.00029607212753044886,-0.0013483479917049544,0.001974674723110973,0.0,1.2009682532858392e-15,9.80665
21,292.239,1.0,-0.00043073043204176905,0.003760810215178059,0.6580954506161952,-0.752924994056263,-0.0005727971300398498,-0.001513934797554897,0.0013080781978372857,0.0,1.2009682532858392e-15,9.80665
22,292.315,1.0,-0.00044074342366825516,0.0038292552012700477,0.6580938398590717,-0.7529260447531078,0.0007690330057959298,-0.002282028928507599,0.0004732133100654087,0.0,1.2009682532858392e-15,9.80665
23,292.406,0.875,-0.00045273266364207165,0.003911209066195965,0.6580919111893581,-0.7529273028243297,0.0023756980368621386,-0.0032017205853060483,-0.000526427542398089,0.0,1.2009682532858392e-15,9.80665
24,292.519,1.0,-0.00046946688963017235,0.004007913327168028,0.6580933782312025,-0.7529255051010951,0.003243993566371532,-0.003706204622052627,-0.0013413030374795176,0.0,1.2009682532858392e-15,9.80665
25,292.619,0.8571428571428571,-0.00048714550894945997,0.004085624650507423,0.6581006782855373,-0.7529186926126918,0.002261281450278865,-0.003161853189580036,-0.0013997197803109996,0.0,1.2009682532858392e-15,9.80665
26,292.722,0.8888888888888888,-0.0005053544868483135,0.004165667313546944,0.6581081973415022,-0.7529116757496365,0.001249087970704122,-0.002601171214133657,-0.0014598890254273842,0.0,1.2009682532858392e-15,9.80665
27,292.802,0.8,-0.0005064580888043986,0.004160259986765276,0.6581057044193077,-0.7529138843641591,0.0007298819227254238,-0.0022744453313622405,-0.00037705224235532386,0.0,1.2009682532858392e-15,9.80665
28,292.89,1.0,-0.0005065090869412801,0.004148284844278516,0.6581022189944428,-0.752916996904926,0.00018256554098069512,-0.0019247466540595133,0.0009148136672722372,0.0,1.2009682532858392e-15,9.80665
29,293.002,1.0,-0.0005012593200395198,0.004120448476463655,0.6580986622472786,-0.7529202605015505,-0.00048680921969947665,-0.0013587002626152301,0.0021402295194565386,0.0,1.2009682532858392e-15,9.80665
30,293.122,1.0,-0.00047360013101559477,0.004038404246045603,0.658098496776678,-0.752920864081078,-0.0010911859567278599,-0.000250662703299626,0.0017169407270847723,0.0,1.2009682532858392e-15,9.80665
31,293.206,0.6923076923076923,-0.00045423869869884724,0.003980973284752967,0.6580983809472575,-0.7529212865867472,-0.0015142496726477282,0.0005249635882212968,0.0014206385724245363,0.0,1.2009682532858392e-15,9.80665
32,293.305,0.7692307692307693,-0.00040183743082943343,0.003931025872095578,0.6580965362318577,-0.7529231878397392,-0.0020324059184641803,0.0008169330987148216,-9.093882143538547e-05,0.0,1.2009682532858392e-15,9.80665
33,293.401,1.0,-0.00034234279086333986,0.0038877977434716507,0.6580942461263404,-0.7529254432926857,-0.002540596282109753,0.0009174749660305943,-0.00189781929552603,0.0,1.2009682532858392e-15,9.80665
34,293.513,1.0,-0.00029278007093767454,0.003842610644566026,0.6580965292849582,-0.7529237052472718,-0.0023920301608742634,0.0006354739870876945,-0.003273814180865906,0.0,1.2009682532858392e-15,9.80665
35,293.602,1.0,-0.0002895778379718609,0.0038162660048164927,0.6581073764723764,-0.7529143586742413,-0.0009222977943720012,-0.0003165413336827334,-0.003032740666531052,0.0,1.2009682532858392e-15,9.80665
36,293.692,0.8571428571428571,-0.0002863396248603627,0.0037896253578787523,0.6581183455383048,-0.7529049070835361,0.000563948418945442,-0.0012792534558104876,-0.002788958461023807,0.0,1.2009682532858392e-15,9.80665
37,293.81,0.8571428571428571,-0.0003150142512538003,0.003830928268831318,0.6581244863149924,-0.7528993144669555,0.001561223389019854,-0.001976970319512774,-0.002622962603906543,0.0,1.2009682532858392e-15,9.80665
38,293.916,1.0,-0.000354281220748533,0.003899311586770558,0.6581266210657508,-0.7528970806640151,0.0020667028905127856,-0.002372095413715463,-0.0025368876153057164,0.0,1.2009682532858392e-15,9.80665
39,294.0,0.8571428571428571,-0.0003791295183868825,0.003948151948620723,0.6581255927959001,-0.7528977165060917,0.0021958718534589193,-0.0024750196417623336,-0.0024097726505947527,0.0,1.2009682532858392e-15,9.80665
40,294.122,1.0,-0.0003895595474610321,0.003997188030333357,0.6581129663634622,-0.7529084880306091,0.0012726154553134826,-0.001764166256063971,-0.001984052449108528,0.0,1.2009682532858392e-15,9.80665
41,294.205,1.0,-0.00039665538691311417,0.004030548643301772,0.6581043762495904,-0.7529158161989282,0.0006444983975591001,-0.0012805528871054797,-0.0016944231317041038,0.0,1.2009682532858392e-15,9.80665
42,294.362,1.0,-0.00042656675336747596,0.004152926197889704,0.6581132055785853,-0.7529074098556631,0.0003293355973437045,-0.0010090112793258946,-0.0018388856817037522,0.0,1.2009682532858392e-15,9.80665
43,294.424,1.0,-0.00043955391548988727,0.004205477543465561,0.6581184794092266,-0.7529025033100609,0.0002670845249667832,-0.0009476165496744285,-0.0019452696572989107,0.0,1.2009682532858392e-15,9.80665
44,294.527,1.0,-0.00045704442384643596,0.00423407985200941,0.6581224903815726,-0.7528988310556369,0.000720930443909639,-0.0009660632841185084,-0.0017233625874368854,0.0,1.2009682532858392e-15,9.80665
45,294.604,1.0,-0.000466620719312062,0.00420517947313656,0.6581214197193459,-0.7528999224124931,0.00153756139436311,-0.0010830227566689774,-0.0012159968320043933,0.0,1.2009682532858392e-15,9.80665
46,294.724,0.6875,-0.00048154481614161,0.004160139921646401,0.6581197511548368,-0.7529016232283732,0.002810233005459507,-0.0012652972593450444,-0.0004252969534082533,0.0,1.2009682532858392e-15,9.80665
47,294.811,1.0,-0.0004865608794722357,0.004124558365485049,0.6581181151817864,-0.7529032443685311,0.0023476302279161997,-0.0012614652565680507,0.0007456194264808733,0.0,1.2009682532858392e-15,9.80665
48,294.922,1.0,-0.0004924121670314394,0.004078884498532679,0.6581159876203596,-0.7529053493935854,0.0016264915149658446,-0.0012437248146161422,0.0022960309553892435,0.0,1.2009682532858392e-15,9.80665
49,295.002,1.0,-0.0005021807424454184,0.0040353673091248704,0.6581148491794238,-0.7529065708609023,0.0010472120931372842,-0.0008271326534451649,0.0027347004087643293,0.0,1.2009682532858392e-15,9.80665
50,295.131,0.8095238095238095,-0.0005415324614605027,0.003920137676613405,0.6581146923730502,-0.7529072835525706,-0.00013998782122464997,0.0015612576697013139,0.0005566204921350266,0.0,1.2009682532858392e-15,9.80665
51,295.242,1.0,-0.000577065526500484,0.003813554848958831,0.6581141712746962,-0.7529082641909173,-0.0009491075046292993,0.0033116543901163986,-0.001221539843995816,0.0,1.200910375297729e-15,9.806177390361444
52,295.325,1.0,-0.0006139514775572437,0.0036880119256061084,0.6581113993611919,-0.7529112638726612,-0.00024369584693845854,0.0027406559406171205,-0.0019589300532954703,0.0,1.2005100525466338e-15,9.802908507028112
53,295.407,1.0,-0.0006503930195651371,0.0035639815675949497,0.6581086608442358,-0.7529142274136611,0.0004532168751177508,0.00217653699050924,-0.0026874360432061787,0.0,1.2001145529612145e-15,9.799679007831326
54,295.515,0.8571428571428571,-0.0007028919850808082,0.0034579587690791182,0.6581097377258048,-0.7529137526209456,0.0015663489809749078,0.001091086577468299,-0.0032826859042033654,0.0,1.1999395354593194e-15,9.798249881474103
55,295.616,1.0,-0.0007604101215711025,0.003466044116690614,0.658119505079619,-0.7529051201333369,0.0029725179463934172,-0.0005645459820235233,-0.0031580801420581866,0.0,1.2004227936010798e-15,9.802195983665337
56,295.723,1.0,-0.0008213451770608365,0.0034746097819820026,0.6581298526722736,-0.7528959748246822,0.004462221701837188,-0.0023185329509905783,-0.003026072057409298,0.0,1.2009347601473013e-15,9.806376507768924
57,295.842,1.0,-0.0008436197939847968,0.0036359032695636685,0.6581323287271608,-0.7528930029611632,0.004267429814217636,-0.003050054036696645,-0.003527538812871308,0.0,1.2009682532858392e-15,9.80665
58,295.929,0.8571428571428571,-0.0008578258153592888,0.0037607584586270477,0.6581337262497756,-0.7528911592041099,0.004040414855195892,-0.0035291554821854105,-0.003923779379472434,0.0,1.2009682532858392e-15,9.80665
59,296.009,0.5,-0.0008630248637468244,0.0038409451796873662,0.6581331896407346,-0.7528912316305707,0.003367308470192051,-0.0033619995752578583,-0.003919318875664299,0.0,1.2009682532858392e-15,9.80665
60,296.133,1.0,-0.0008484464188297458,0.003865570831459767,0.6581271140396855,-0.7528964327316133,0.0009873087880726832,-0.0013535742696573626,-0.0028507314009003355,0.0,1.2009682532858392e-15,9.80665
61,296.214,1.0,-0.0008389234023919722,0.0038816569426981975,0.6581231453002904,-0.7528998302250363,-0.000567368423635071,-4.1619029708020016e-05,-0.0021527024859332175,0.0,1.2009682532858392e-15,9.80665
62,296.322,1.0,-0.0008122000719255661,0.0038418623882738316,0.6581130960000179,-0.7529088449281549,-0.00030716850243297806,0.0002615299076769481,-0.001773031403410797,0.0,1.201408448820908e-15,9.810244469322708
63,296.425,1.0,-0.0007843875632041745,0.0037937523669529065,0.6581027228344716,-0.752918186125009,0.0003279570997526387,0.00031078773767750993,-0.0015023330419483584,0.0,1.2019012764308221e-15,9.814268712151394
64,296.555,1.0,-0.0007404219137946422,0.0037753433492293403,0.658100398021498,-0.7529203560232011,0.0012880211286247795,-0.0006182288900019326,-0.0007675270810722329,0.0,1.2018137349361524e-15,9.813553881599999
65,296.608,1.0,-0.0007197631688141196,0.0037808925115919083,0.6581027722541558,-0.7529182726857525,0.0017283172118478316,-0.0013027866189369306,-0.00034665683656923325,0.0,1.2015591296664557e-15,9.8114748718
66,296.72,1.0,-0.0006761069530062115,0.0037926190433769606,0.6581077895005272,-0.7529138701613328,0.002658754217904333,-0.0027493991781961675,0.0005427293404939395,0.0,1.2010210958889837e-15,9.807081492599998
67,296.802,1.0,-0.0006538538719813654,0.003742946955353765,0.6581100595343385,-0.752912149606339,0.0019099426409226515,-0.002716691752895648,0.00033482278883446246,0.0,1.2009682532858392e-15,9.80665
68,296.91,0.6153846153846154,-0.0006265261954601337,0.0036656375116303026,0.6581127629850798,-0.7529101901452983,0.000631901393644151,-0.0024508209358900038,-0.00011430050432694675,0.0,1.2009682532858392e-15,9.80665
69,297.008,1.0,-0.000604223298775573,0.0036243353395202516,0.658116905771203,-0.7529067913483691,-0.00018079199781642708,-0.002245573400519803,-0.00041479611489921524,0.0,1.2009682532858392e-15,9.80665
70,297.114,1.0,-0.0005871946747199566,0.0036617165491041625,0.658126192618,-0.7528985051606282,-7.282749796288124e-05,-0.0021259814882651183,-0.00043536259140818925,0.0,1.2009682532858392e-15,9.80665
71,297.223,1.0,-0.0005696841084740801,0.003700155717449897,0.6581357423000838,-0.7528899844581397,3.8192600943167125e-05,-0.0020030048992484596,-0.0004565111380070481,0.0,1.2009682532858392e-15,9.80665
72,297.308,0.8,-0.0005690914486905417,0.0037374764166815066,0.6581297642505872,-0.7528950245428317,-3.9385777550279266e-05,-0.0016906406107661956,-0.0006596568221951701,0.0,1.2009682532858392e-15,9.80665
73,297.398,0.8,-0.0005699008869391403,0.0037778004793829678,0.6581219576931392,-0.75290164650597,-0.00013958574945939015,-0.0013360891362135471,-0.0008952855852518943,0.0,1.2009682532858392e-15,9.80665
74,297.474,0.9166666666666666,-0.0005705844125712898,0.0038118519101086185,0.658115365489072,-0.7529072383859535,-0.00022419905907145933,-0.0010366901132582212,-0.0010942609851662991,0.0,1.2009682532858392e-15,9.80665
75,297.582,0.8571428571428571,-0.0005613403143114289,0.003954843209351408,0.6581291181412772,-0.7528944670619323,0.0010036199142137937,-0.002320691771560205,-0.0010743882067397702,0.0,1.2009682532858392e-15,9.80665
76,297.763,1.0,-0.0005471239860559858,0.004180253461517846,0.6581456751425743,-0.7528788038973132,0.0025100540202112652,-0.003993205633014572,-0.00044476495683225183,0.0,1.2009682532858392e-15,9.80665
77,297.828,1.0,-0.0005458364439631648,0.004221808345662399,0.6581369551818103,-0.7528861933190616,0.0019069705596195528,-0.0035104509675876793,0.0007285796049978702,0.0,1.2009682532858392e-15,9.80665
78,297.919,1.0,-0.0005440338850332152,0.004279985183464782,0.6581247472367405,-0.7528965385095094,0.00106265371479105,-0.002834594435989944,0.002371261991560246,0.0,1.2009682532858392e-15,9.80665
79,298.002,1.0,-0.0005317854748189295,0.004305959127803415,0.6581154356924839,-0.752904539632016,0.00020959705349934705,-0.002160507664286731,0.0031039867372517796,0.0,1.2009682532858392e-15,9.80665
80,298.094,1.0,-0.0004835060953435321,0.00424610207870782,0.6581110808364717,-0.7529087135887454,-0.00100746578555341,-0.0012246788853940806,0.0014108999962678115,0.0,1.2009682532858392e-15,9.80665
81,298.202,1.0,-0.0004268303020463148,0.004175835108030367,0.6581059686141967,-0.7529136134509931,-0.0024361917270504193,-0.00012609727538943905,-0.0005766366127137779,0.0,1.2009682532858392e-15,9.80665
82,298.314,1.0,-0.000388379088128129,0.0041285264921231205,0.6580989064218062,-0.7529200695996924,-0.0017660324981648512,-0.0002594096618837319,-0.0005887130347366125,0.0,1.2009682532858392e-15,9.80665
83,298.409,1.0,-0.00036265975442709137,0.004097071074490158,0.6580923188132171,-0.752926012250667,-0.00046751854556010197,-0.0008042560947355493,9.62646506038156e-05,0.0,1.2009682532858392e-15,9.80665
84,298.504,1.0,-0.0003406163876664525,0.004063222876450469,0.6580870822360901,-0.7529307839381929,0.0005676398174388549,-0.0011862962133621154,0.000571367116252216,0.0,1.2009682532858392e-15,9.80665
85,298.601,1.0,-0.00033133506065235026,0.004020052872858415,0.6580865964196629,-0.7529314429616786,0.0006770388967540665,-0.0009906029793430432,0.00030134175062543155,0.0,1.2009682532858392e-15,9.80665
86,298.722,0.8571428571428571,-0.0003197573228306345,0.003966201631264201,0.6580859904012331,-0.7529322650425215,0.0008135057895081001,-0.000746490800824395,-3.549401474407885e-05,0.0,1.2009682532858392e-15,9.80665
87,298.802,1.0,-0.0003258806610871633,0.003953025157863002,0.6580846292317785,-0.7529335215210029,0.0018029998522250891,-0.001320563331246318,0.00039395720697934963,0.0,1.2009682532858392e-15,9.80665
88,298.922,0.8571428571428571,-0.00033801810581808876,0.003938066373462522,0.6580823816570012,-0.7529355590145731,0.00347994123585519,-0.002339272629469614,0.001177881015464649,0.0,1.2009682532858392e-15,9.80665
89,299.002,1.0,-0.00034748432565326315,0.0039392595233505,0.658081214946591,-0.7529365677304787,0.004267369583249138,-0.0027264649979771294,0.0012360304221513928,0.0,1.2009682532858392e-15,9.80665
90,299.097,1.0,-0.000363622438634403,0.003980454098269561,0.6580810110622383,-0.7529365200838011,0.0040249184472487595,-0.0021461941651071547,-0.0003495789412401094,0.0,1.2009682532858392e-15,9.80665
91,299.195,1.0,-0.00038027017623600733,0.004022949554501875,0.6580808007394323,-0.7529364709324915,0.0037748109595850993,-0.001547598990146282,-0.0019852601792657563,0.0,1.2009682532858392e-15,9.80665
92,299.302,0.7142857142857143,-0.0004118530255271995,0.004110127172775134,0.6580733810307919,-0.752942459635606,0.003123613833449835,-0.001535803694277981,-0.0026857219636440195,0.0,1.2009682532858392e-15,9.80665
93,299.406,1.0,-0.000449437851428773,0.004215811104241454,0.6580624754406601,-0.752951384707965,0.0022964144898580258,-0.0018540510088204674,-0.002808900550007794,0.0,1.2009682532858392e-15,9.80665
94,299.494,1.0,-0.0004787970532484157,0.004291941384899063,0.6580543302243137,-0.7529580654789105,0.0016288471124864198,-0.0020461010617619114,-0.0028501037250171857,0.0,1.2009682532858392e-15,9.80665
95,299.589,0.8666666666666667,-0.0004937862126783727,0.004283230798128254,0.6580529388967888,-0.7529593210834857,0.0011294990133711852,-0.001725354997710521,-0.002463675820807347,0.0,1.2009682532858392e-15,9.80665
96,299.695,1.0,-0.0005105109589896974,0.004273511617099771,0.6580513864681822,-0.752960722073854,0.0005723316606740421,-0.0013674699157162455,-0.0020325036329520464,0.0,1.2009682532858392e-15,9.80665
97,299.806,1.0,-0.0005227654579563902,0.004243800873204223,0.658050988144352,-0.7529612288322427,0.00023984958395542008,-0.0011743387329347923,-0.0006680414815147361,0.0,1.2009682532858392e-15,9.80665
98,299.906,1.0,-0.0005315313198842135,0.004208587686589081,0.6580511600324509,-0.7529612700993616,4.884234577830389e-05,-0.0010788916584311215,0.0009559936038891833,0.0,1.2009682532858392e-15,9.80665
99,300.002,1.0,-0.0005390762362879906,0.004169336086341565,0.658053770711779,-0.752959201390317,-0.00020748017542067328,-0.0007645203629507921,0.00180942482873786,0.0,1.2009682532858392e-15,9.80665
100,300.082,0.7368421052631579,-0.0005424244582642192,0.0041182310482200555,0.6580642057664823,-0.7529503572441011,-0.0006674673240631218,0.00024969878699617224,0.0001375267617406647,0.0,1.2009682532858392e-15,9.80665
101,300.212,1.0,-0.0005478653189755916,0.004035185361272589,0.6580811627303751,-0.7529359855065002,-0.001414946440607223,0.0018978049056602596,-0.002579307597130223,0.0,1.2009682532858392e-15,9.80665
102,300.282,1.0,-0.0005559269537460898,0.003972818326209886,0.6580875907827023,-0.7529306875690951,-0.0010944708839009268,0.0017558421499822188,-0.0032580678946233957,0.0,1.2009682532858392e-15,9.80665
103,300.435,1.0,-0.0005783546507821395,0.003819968320678438,0.6580991090300803,-0.752921394071124,0.00028322287188420445,0.0004812732065422507,-0.0040071029844323805,0.0,1.2009682532858392e-15,9.80665
104,300.519,0.8571428571428571,-0.0006010660599175952,0.0037907211521486803,0.6581059477034523,-0.7529155508120245,0.0010078439622052422,-0.0002955106486166371,-0.004080503447247444,0.0,1.2009682532858392e-15,9.80665
105,300.602,0.8571428571428571,-0.0006386164716652908,0.0038412628149314823,0.6581134531987487,-0.7529087004600975,0.001677689048610008,-0.0011749641398480447,-0.0036621291401696216,0.0,1.2009682532858392e-15,9.80665
106,300.712,1.0,-0.0006883820775959956,0.003908245741511132,0.6581234002407079,-0.7528996216804353,0.002565435548664948,-0.0023405049113601147,-0.0031076571669336837,0.0,1.2009682532858392e-15,9.80665
107,300.816,1.0,-0.000745461993697889,0.003970613959755691,0.6581316054079757,-0.7528920625571137,0.003419789496379108,-0.002397435265951455,-0.0033591637746071545,0.0,1.2009682532858392e-15,9.80665
108,300.918,1.0,-0.0008026076094172741,0.004031671297495856,0.6581395136577963,-0.7528847676428531,0.004259457113221288,-0.002332041505724192,-0.003695822786539793,0.0,1.2009682532858392e-15,9.80665
109,301.02,1.0,-0.0008556134230628975,0.004093559250727137,0.6581411838413054,-0.7528829179200351,0.004051883684471697,-0.0018585018522574376,-0.003416930406820326,0.0,1.2009682532858392e-15,9.80665
110,301.101,1.0,-0.0008919309550124989,0.004143864334562631,0.6581338076147145,-0.7528890454541267,0.002426069781184297,-0.000913062936160772,-0.0023367188172415563,0.0,1.2009682532858392e-15,9.80665
111,301.185,0.8333333333333334,-0.0009295935807380048,0.004196032569651282,0.6581261581945461,-0.7528953999339254,0.0007400405481458074,6.739223608744982e-05,-0.001216499391011918,0.0,1.2009682532858392e-15,9.80665
112,301.306,0.8333333333333334,-0.0009359366793733879,0.004198085532094685,0.6581203261540028,-0.7529004807576011,-0.0005059190993583128,0.0002660882671220921,-0.000994650391206461,0.0,1.2006217288491204e-15,9.803820413241107
113,301.402,0.6666666666666666,-0.0009159760414171841,0.004161582574145407,0.658118404913493,-0.7529023872023513,-0.0008774448481568461,-0.00020939324616189305,-0.001544712488668311,0.0,1.2001660254802846e-15,9.80009931284585
114,301.548,0.5714285714285714,-0.0008807651265723375,0.004097476040856351,0.6581209999228562,-0.7529005115300175,-0.0007049093255772046,-0.0009557845769450827,-0.0017751194536685367,0.0,1.2000675270958749e-15,9.7992950125
115,301.603,1.0,-0.0008650232779461408,0.004068941291185562,0.6581247932327675,-0.7528973678262761,-0.0002634717384351423,-0.0012488325667238318,-0.0015525492058405016,0.0,1.2003338708617246e-15,9.801469874395162
116,301.721,1.0,-0.0008312498572572155,0.004007721282800971,0.658132931606759,-0.7528906231527949,0.000683612539433125,-0.0018775537084308612,-0.001075034855954978,0.0,1.2009052993048204e-15,9.80613594173387
117,301.814,1.0,-0.0008180986500697872,0.003997344351875768,0.6581365123628226,-0.752887563187533,0.0005873943167919668,-0.0018010628275179396,-0.0009479739283957045,0.0,1.2009682532858392e-15,9.80665
118,301.957,1.0,-0.0008012417982668266,0.003990851519582858,0.6581413102908487,-0.7528834217144581,0.00022889686325398384,-0.0015405226022049904,-0.0008148884500907623,0.0,1.2009682532858392e-15,9.80665
119,302.042,1.0,-0.0007781686023653753,0.003934769148875436,0.6581421883469665,-0.7528829660221571,8.969284672608247e-05,-0.0011861317030840385,-0.0012464551030689206,0.0,1.2009682532858392e-15,9.80665
120,302.133,1.0,-0.0007466018940017625,0.0038472637932952746,0.6581420903250856,-0.752883533136558,-2.047895495011542e-05,-0.0007017945326551209,-0.0019770499569433946,0.0,1.2009682532858392e-15,9.80665
121,302.212,1.0,-0.0007191978284992852,0.0037712976054839254,0.6581420052291672,-0.7528840254666422,-0.00011612260695472755,-0.00028132600008495844,-0.002611302632284976,0.0,1.2009682532858392e-15,9.80665
122,302.311,0.8571428571428571,-0.0006741822359594997,0.003722220339309912,0.6581350367639948,-0.7528904029278022,-0.000438420135858033,-0.00017853779486376624,-0.003167161445292878,0.0,1.2009682532858392e-15,9.80665
123,302.413,1.0,-0.0006246604668162866,0.0036852325889594776,0.6581258372017526,-0.7528986693741803,-0.0008300770703977999,-0.0001974863448250774,-0.003669520036736722,0.0,1.2009682532858392e-15,9.80665
124,302.509,1.0,-0.0005858623678906365,0.0036782765759190072,0.6581207761475808,-0.7529031593903072,-0.0008610886344686058,-0.0006750361109152616,-0.003717415422201145,0.0,1.2009682532858392e-15,9.80665
125,302.621,1.0,-0.0005679351065524612,0.0037676571828844513,0.6581274623351063,-0.752896882152007,0.00028435475286062856,-0.0028411829331883415,-0.002286098919809283,0.0,1.2009682532858392e-15,9.80665
126,302.706,1.0,-0.0005543295957154432,0.0038354906792422037,0.6581325366738533,-0.7528921181765114,0.0011536644664593412,-0.004485133646521788,-0.0011998319313860956,0.0,1.2009682532858392e-15,9.80665
127,302.812,0.8571428571428571,-0.0005274636019714014,0.003914115985357346,0.6581319391593291,-0.7528922526750719,0.0010698628004071405,-0.00405870813569679,-0.0010507677384394359,0.0,1.2009682532858392e-15,9.80665
128,302.883,1.0,-0.0005069712375051166,0.003965274817046302,0.6581297918616006,-0.7528938753984269,0.0007191138691737014,-0.0031483380094052492,-0.0012550490714766348,0.0,1.2009682532858392e-15,9.80665
129,303.023,1.0,-0.00047343174550944,0.004018235277889401,0.6581247166529279,-0.7528980573078318,-0.00021771534876681935,-0.0015063643129910051,-0.0012696658314919065,0.0,1.2009682532858392e-15,9.80665
130,303.116,1.0,-0.00046296714232579443,0.003970984651992916,0.6581198982942058,-0.7529025249522258,-0.0012618824180985972,-0.0006790455260066556,-0.0006115581771634301,0.0,1.2009682532858392e-15,9.80665
131,303.223,1.0,-0.00045092722253385,0.003916621028649612,0.65811435459116,-0.752907665145238,-0.0024632359279757603,0.0002728158740727593,0.00014561944663436387,0.0,1.2009682532858392e-15,9.80665
132,303.304,1.0,-0.0004454610209490778,0.0038866229936562733,0.6581188491329998,-0.7529038945786167,-0.0019488842968657738,7.206923884922264e-05,-0.00015254543520922003,0.0,1.2009682532858392e-15,9.80665
133,303.442,1.0,-0.0004372291605365976,0.003838820633578334,0.6581290816640915,-0.7528952005048852,-0.0006507185651396326,-0.000542925654046029,-0.0009187094322721872,0.0,1.2009682532858392e-15,9.80665
134,303.512,0.8571428571428571,-0.0004226678114254061,0.003837625942705092,0.6581351388924201,-0.7528899188451885,-5.6555192640751404e-05,-0.0011306143137646257,-0.00122543463219767,0.0,1.2009682532858392e-15,9.80665
135,303.642,0.8571428571428571,-0.0003629843215995071,0.003907859149332619,0.6581491123033375,-0.7528773706642478,0.0008447220975375419,-0.003088630971509874,-0.0015376397669427328,0.0,1.2009682532858392e-15,9.80665
136,303.713,0.6153846153846154,-0.0003303879540791952,0.003946217285259976,0.658156743935454,-0.7528705174269649,0.001336958156019733,-0.004158009299971175,-0.001708151802072798,0.0,1.2009682532858392e-15,9.80665
137,303.803,0.8571428571428571,-0.00030021867367980226,0.00393983630529367,0.6581509259064116,-0.7528756497479636,0.0012099071497662008,-0.0038013333079973833,-0.0005460843760188054,0.0,1.2009682532858392e-15,9.80665
138,303.922,0.8571428571428571,-0.00026509792804466537,0.003907869756082168,0.6581366060762003,-0.7528883475017593,0.0007206511528849639,-0.0025972761580183258,0.0015799943710203942,0.0,1.2009682532858392e-15,9.80665
139,304.008,1.0,-0.00024339325640069324,0.0038981606286409504,0.6581287531912647,-0.7528952707159353,0.0004464101217440328,-0.0019946689955912394,0.002716827361534043,0.0,1.2009682532858392e-15,9.80665
140,304.117,0.8571428571428571,-0.00022944024863007882,0.003935235325073079,0.6581280027577483,-0.752895737286065,0.00039135642400212577,-0.002217390605371972,0.002684105963756636,0.0,1.2009682532858392e-15,9.80665
141,304.21,0.8571428571428571,-0.00021753538878910495,0.003966867864230743,0.6581273624796105,-0.7528961353688362,0.00034438400299301153,-0.0024074191348177724,0.0026561877069374027,0.0,1.2009682532858392e-15,9.80665
142,304.333,1.0,-0.0002487138384940853,0.004056441799029044,0.6581214330893651,-0.7529008238929398,0.0023280386887493437,-0.0027205597646534794,0.001312595021910786,0.0,1.2009682532858392e-15,9.80665
143,304.42,0.8571428571428571,-0.00027923368781568813,0.004128412605895935,0.6581163220413592,-0.7529048911541308,0.0041002479358576704,-0.0029532028175890505,0.00012647628085684683,0.0,1.2009682532858392e-15,9.80665
144,304.531,1.0,-0.0003243084857346633,0.004218252282880943,0.6581124415885076,-0.7529077682084779,0.005433835148811339,-0.003065957644954334,-0.0006864000931382299,0.0,1.2009682532858392e-15,9.80665
145,304.617,1.0,-0.0003659485857651605,0.004285684479986383,0.6581123259488567,-0.7529074658922777,0.005451638706028462,-0.0029518039599060945,-0.0005493529336526907,0.0,1.2009682532858392e-15,9.80665
146,304.76,1.0,-0.0004289280753068522,0.004369515657271183,0.6581138810177668,-0.7529055996125208,0.004951089328392819,-0.0025819008270154156,-0.0002933438923915442,0.0,1.2009682532858392e-15,9.80665
147,304.82,1.0,-0.00044295703243210524,0.004348654689495882,0.6581179939872105,-0.7529021160753814,0.003691143294113887,-0.002070044047677944,-0.00013022167669367662,0.0,1.2009682532858392e-15,9.80665
148,304.922,0.7692307692307693,-0.0004668062595450421,0.004313191044277862,0.6581249860352648,-0.7528961940622444,0.0015492350358391064,-0.0011998875228039993,0.00014708608999277554,0.0,1.2009682532858392e-15,9.80665
149,305.01,0.8666666666666667,-0.0004838977940664261,0.004267983355024742,0.6581282328081226,-0.7528936009243027,-7.187626324595071e-05,-0.00046571370773016693,0.00039963660668582027,0.0,1.2009682532858392e-15,9.80665
150,305.095,0.8947368421052632,-0.0004914320296898508,0.0041866808894043305,0.6581241939107623,-0.7528975769232856,-0.001053515984677209,0.00020080405427172216,0.0006778468717822163,0.0,1.2009682532858392e-15,9.80665
151,305.234,1.0,-0.0005037527208857947,0.004053727445625171,0.6581175891256672,-0.7529040788510342,-0.002658785646781215,0.00129075662977986,0.0011328024817630334,0.0,1.2009682532858392e-15,9.80665
152,305.323,1.0,-0.0005021930053022462,0.003972434740059135,0.6581204051533971,-0.7529020441262951,-0.0017597463191488052,0.0015657289638183686,-0.00013485341425969132,0.0,1.2009682532858392e-15,9.80665
153,305.415,1.0,-0.0005003561864762728,0.003888492981593613,0.6581234835163399,-0.7528997935338311,-0.0007846132223491122,0.0018399202260189664,-0.0014822854353119428,0.0,1.2009682532858392e-15,9.80665
154,305.522,1.0,-0.0004980446546009189,0.0038000179509446396,0.6581257468860684,-0.7528982732428998,0.000610213917603697,0.001481850690696982,-0.001947584081074787,0.0,1.2009682532858392e-15,9.80665
155,305.578,0.8571428571428571,-0.000496654008293625,0.003763160787223369,0.6581255721607606,-0.7528986101440954,0.0016093142292472901,0.000595691661564588,-0.0010538126158791744,0.0,1.2009682532858392e-15,9.80665
156,305.702,1.0,-0.0004935747200417585,0.00368154849612623,0.6581251852690077,-0.7528993561396,0.0038216077764591906,-0.0013665176172295338,0.0009252527713406542,0.0,1.2009682532858392e-15,9.80665
157,305.81,1.0,-0.0005186769392995426,0.0037051516845238706,0.6581313687198947,-0.7528938164746157,0.004724874681844466,-0.0023924504419583093,0.0006034958733642115,0.0,1.2009682532858392e-15,9.80665
158,305.922,0.8461538461538461,-0.0005547934986755615,0.0037639961628855067,0.6581401478588522,-0.7528858251128008,0.0052900781312328555,-0.00320844507618562,-0.0004726038094408085,0.0,1.2009682532858392e-15,9.80665
159,306.002,0.6666666666666666,-0.0005820778915969296,0.0037985011877229363,0.6581428087844625,-0.75288330767104,0.005382600024209143,-0.0033906218263183322,-0.0010610263644983606,0.0,1.2009682532858392e-15,9.80665
160,306.122,0.8571428571428571,-0.0006306865419469804,0.0038113705403047078,0.6581281490852361,-0.7528960166564748,0.003913542771312459,-0.0015937247247031759,-0.0010125231402482544,0.0,1.2009682532858392e-15,9.80665
161,306.202,1.0,-0.0006630923088470067,0.0038199501086925536,0.6581183759524184,-0.7529044893134313,0.002934171269381569,-0.00039579332362668857,-0.0009801876574148578,0.0,1.2009682532858392e-15,9.80665
162,306.345,1.0,-0.000734206344734688,0.003843369915097405,0.6581149885334775,-0.7529072628737288,0.0015666071863265564,4.664719906705871e-06,-0.0011136277194416214,0.0,1.2009682532858392e-15,9.80665
163,306.402,0.8888888888888888,-0.0007641923111791036,0.0038537101804265775,0.6581153891872653,-0.7529068302390699,0.00106912206614487,-5.2158947154456344e-05,-0.0011905947892320407,0.0,1.2009682532858392e-15,9.80665
164,306.504,0.5833333333333334,-0.0008138573485718031,0.003862811241838556,0.6581166366047536,-0.7529056435140653,0.0005242321603002678,-0.00023885556962353424,-0.0012419281490146322,0.0,1.2009682532858392e-15,9.80665
165,306.589,1.0,-0.0008373548172765536,0.003828279775813082,0.6581200521294702,-0.7529028067560711,0.0016170223299413803,-0.0007752197468653265,-0.0008977185525000131,0.0,1.2009682532858392e-15,9.80665
166,306.722,1.0,-0.0008741214447792845,0.0037742481877967465,0.6581253964210856,-0.7528983680641509,0.0033269175365564694,-0.0016144719300790387,-0.00035913177207120206,0.0,1.2009682532858392e-15,9.80665
167,306.807,1.0,-0.0008585005161367694,0.0037473898242252886,0.6581203571090665,-0.7529029242281078,0.0027682731007223947,-0.001519764017313671,0.0009081338550898388,0.0,1.2009682532858392e-15,9.80665
168,306.924,0.875,-0.000824512895204961,0.0037128691897294233,0.6581107220160912,-0.7529115553383408,0.0014722079494970423,-0.0011879747705534705,0.002947110205888376,0.0,1.2009682532858392e-15,9.80665
169,307.002,1.0,-0.0008039324308250586,0.0036877644199852996,0.6581079421990794,-0.7529141316241681,0.0005622424576430076,-0.0009333264762535164,0.00378283123113195,0.0,1.2009682532858392e-15,9.80665
170,307.119,1.0,-0.0007873105313385389,0.0036357688876763527,0.6581287570105097,-0.7528962055089465,-0.0011175998901021124,-0.00032194514479473146,0.0014460364812979342,0.0,1.2009682532858392e-15,9.80665
171,307.232,1.0,-0.000771256901919937,0.003585550980403617,0.6581488602044552,-0.752878892252365,-0.0027400117302317493,0.00026853426080211836,-0.0008108678497379691,0.0,1.2009682532858392e-15,9.80665
172,307.311,1.0,-0.0007552412166036512,0.0035098248902818326,0.6581530023578026,-0.7528756356584028,-0.002473631574974406,0.00017908348395198265,-0.00165218423330104,0.0,1.2006161621915024e-15,9.803774958032129
173,307.402,0.5294117647058824,-0.0007363390453774528,0.003418750528862047,0.6581568352368156,-0.7528727220303727,-0.0020341814596611264,2.8492613082207205e-05,-0.002551564353005494,0.0,1.2001772541150004e-15,9.800191001606427
174,307.513,1.0,-0.0007117257897279703,0.0033496809927014517,0.6581570950015196,-0.752872836927673,-0.0012458350580837655,-0.00043126556046431305,-0.0031729571519430668,0.0,1.199891688118551e-15,9.797859178286851
175,307.631,1.0,-0.000680149981712146,0.0034222960247169156,0.6581420255073916,-0.7528857099016172,0.00046911802879327563,-0.0018794721677019054,-0.002180452196046553,0.0,1.2004562867396176e-15,9.802469475896412
176,307.739,0.9230769230769231,-0.00065130090906914,0.003489963669262612,0.6581282248707938,-0.7528974928523717,0.0020246762419119367,-0.0031963926451279833,-0.0012741080294364701,0.0,1.2009682532858392e-15,9.80665
177,307.802,0.8571428571428571,-0.0006376442633622586,0.003604737726352865,0.6581196615440849,-0.7529044228400945,0.002054515205323706,-0.0034305120501668058,-0.0008733739033340044,0.0,1.2009682532858392e-15,9.80665
178,307.917,0.8571428571428571,-0.0006127154656433764,0.003814245925803089,0.6581040300746953,-0.7529170728176838,0.0021089831544086213,-0.003857872868887982,-0.00014187510171921884,0.0,1.2009682532858392e-15,9.80665
179,308.015,1.0,-0.000596370502785603,0.003949545997341453,0.6580929251641281,-0.752926123168004,0.0017942883556778051,-0.0036522232385983355,0.0006755421370131089,0.0,1.2009682532858392e-15,9.80665
180,308.117,1.0,-0.0005927659742054411,0.003972029558927714,0.6580874316054699,-0.7529308089881506,0.00047840208308874634,-0.0018785623006005304,0.0020574390416943375,0.0,1.2009682532858392e-15,9.80665
181,308.206,0.8571428571428571,-0.0005896208463266735,0.003991647568547092,0.6580826382062485,-0.7529348975959254,-0.000669773193973875,-0.0003309561880343319,0.0032632118310726567,0.0,1.2009682532858392e-15,9.80665
182,308.298,0.75,-0.0005985712169106647,0.003967892123676528,0.6580810051985685,-0.7529364414827272,-0.00016084899272481284,0.00025890368654714205,0.002815315841263256,0.0,1.2009682532858392e-15,9.80665
183,308.424,1.0,-0.0006193216912564677,0.003904708939968318,0.6580810808053533,-0.7529366888661545,0.0017164485989156664,0.00036384735165525227,0.0010226368681490756,0.0,1.2009682532858392e-15,9.80665
184,308.522,1.0,-0.0006317486846360976,0.0038612556469069846,0.6580877964340752,-0.7529310343218455,0.0028603144362568398,0.00010484418459244136,-0.0004668530412016906,0.0,1.201131584968286e-15,9.8079837044
185,308.623,1.0,-0.0006373543922873193,0.0038275090297248014,0.6581076317209232,-0.7529138637295604,0.0034256704151629895,-0.0008228939468971552,-0.0021865943353621604,0.0,1.2016167761426135e-15,9.811945590999999
186,308.72,1.0,-0.0006427380917147324,0.003795098912232989,0.6581266814518565,-0.7528973731607321,0.003968636058271087,-0.0017138899741696882,-0.003838227063417907,0.0,1.2020827518248884e-15,9.8157505712
187,308.803,1.0,-0.0006276670214342779,0.0037372276903166143,0.6581224137340528,-0.7529014005200623,0.0034407568464447863,-0.0016032517333293451,-0.0038444061656408824,0.0,1.2018594479817298e-15,9.813927156944445
188,308.94,1.0,-0.0005937961799204089,0.003627929146571638,0.6581059680023518,-0.7529163387152834,0.0021157861689091763,-0.0010215756372504697,-0.003211446257958617,0.0,1.2012065406376817e-15,9.808595763888889
189,309.021,1.0,-0.0005795215387992722,0.003578135229399244,0.6580986139826324,-0.7529230203955717,0.0015072308306116325,-0.0008285316871479201,-0.0030267428664956346,0.0,1.2009682532858392e-15,9.80665
190,309.12,0.8,-0.0005734122164464865,0.0035465065251206033,0.6580942965356029,-0.7529269477709911,0.001108071141530788,-0.0008899966224787703,-0.0031746165289904087,0.0,1.2009682532858392e-15,9.80665
191,309.189,1.0,-0.0005691542038975738,0.0035244622766839673,0.6580912874058551,-0.752929685032647,0.0008298689339894958,-0.00093283581983059,-0.0032776799907292264,0.0,1.2009682532858392e-15,9.80665
192,309.31,1.0,-0.0004077727800546334,0.003999572895453271,0.6581029721461341,-0.7529167661433745,0.005805002431385415,-0.014313535274938255,-0.004109449321404127,0.0,1.2009682532858392e-15,9.80665
193,309.381,0.8571428571428571,-0.000251614573583509,0.004483521941681271,0.6581166018371607,-0.7529021098285905,0.010905856796072666,-0.027478392171668333,-0.004857492833397987,0.0,1.2009682532858392e-15,9.80665
194,309.516,0.7142857142857143,0.0005468764312516101,0.006615519284628491,0.6581178640440829,-0.7528735170250141,0.021974955168037585,-0.05797129538324865,-0.00527976576187082,0.0,1.2009682532858392e-15,9.80665
195,309.608,0.8571428571428571,0.002397239539439208,0.011224277953165437,0.6580545210144807,-0.7528521430661478,0.033086896918359254,-0.09297370609073412,-0.002963139220983488,0.0,1.2009682532858392e-15,9.80665
196,309.753,0.8333333333333334,0.00546763936933599,0.018811897085037943,0.6579318240178698,-0.7528091991903023,0.04907497410711481,-0.14345039584134708,0.0005110583488679791,0.0,1.2009682532858392e-15,9.80665
197,309.802,0.6,0.007033871684904154,0.022487094391383373,0.6578119115218363,-0.7527629247535433,0.04924404829257899,-0.1444147143528048,0.0010777324111002167,0.0,1.2009682532858392e-15,9.80665
198,309.922,0.8,0.010869542661803186,0.03148757759059058,0.6575182482662442,-0.752649599602297,0.04965810752228689,-0.14677631070739355,0.002465505624729247,0.0,1.2009682532858392e-15,9.80665
199,309.988,0.8,0.012968998064107841,0.03641245395129846,0.6573563741298523,-0.7525874011575772,0.049772765753527216,-0.14774920749996162,0.003205918321212564,0.0,1.2009825505269494e-15,9.80676674583333
200,310.115,0.8,0.0157376348710381,0.042713511682598494,0.656999943599021,-0.752484024707627,0.03585053661039789,-0.10884895092910887,0.0017710984536696954,0.0,1.2027983001479892e-15,9.821593466666668
201,310.214,0.8333333333333334,0.01789586356305421,0.0476253598353433,0.6567220961773494,-0.7524034399159336,0.02499777530985021,-0.07852512887781968,0.0006526168246404175,0.0,1.2042137270179332e-15,9.83315130416667
202,310.322,0.8,0.019299702206597248,0.05083530396088551,0.6565175299424635,-0.7523421039463546,0.018334438167214834,-0.05984901730342005,-0.0008854267718013014,0.0,1.2053654239024516e-15,9.842555622908367
203,310.409,0.8,0.02019992306964966,0.0528998018337194,0.6563766499571968,-0.752299142429493,0.014222649560566278,-0.04829942061013047,-0.0022015362951079763,0.0,1.206197967631821e-15,9.849353858366534
204,310.52,0.8,0.02113079454451708,0.054931062368291636,0.6562265812969098,-0.7522649728095625,0.008429247863502477,-0.03198022204620006,-0.0030557727328986975,0.0,1.2071177895225437e-15,9.856864774096385
205,310.599,1.0,0.02137499620891942,0.05521846917512963,0.6561767993519172,-0.7522803225983035,0.003254261438222744,-0.017322757490818016,-0.0020785245326269703,0.0,1.2074988196109356e-15,9.859976120883534
206,310.722,0.8571428571428571,0.021755208926912878,0.05566595065919378,0.6560992907540174,-0.7523042216364699,-0.004802995907464538,0.0054983582093297775,-0.0005569861954953081,0.0,1.2080920689890648e-15,9.864820369678714
207,310.831,1.0,0.021616920789682338,0.05487945617985405,0.6561338934212765,-0.75233500821195,-0.006670353088528257,0.00874166301637892,-0.0003915321566164706,0.0,1.2081740628055542e-15,9.8654899
208,310.935,0.6666666666666666,0.021401191032094508,0.0539204614252117,0.6561851193421554,-0.7523660764669927,-0.007522421140223958,0.008842460341751601,-0.00044222071394325695,0.0,1.2081740628055542e-15,9.8654899
209,311.042,0.5454545454545454,0.02205366438272999,0.05312790381806501,0.6627560993806567,-0.746426059704951,-0.023001245569436966,-0.0019364536106581069,-0.1599591296231292,0.002079009799999893,1.2084286680752508e-15,9.8675689098
210,311.134,0.8,0.023380698209758282,0.052616491400771924,0.6741161586392715,-0.7360870852001805,-0.04910217409954572,-0.02073787048459848,-0.4368107195525662,0.005687857000001516,1.2088706243924603e-15,9.871177757000002
211,311.202,0.6,0.024361549299300254,0.05223849091842512,0.6825127241782419,-0.7284452344792685,-0.06839416475222146,-0.03463456991315351,-0.6414401555872261,0.008355265800000873,1.209197287757354e-15,9.8738451658
212,311.356,0.3333333333333333,0.002397782525139232,0.002505874945135142,0.00798970443902669,-0.08458934627975667,-0.040014674797647955,-0.018904574017968145,-0.8503626642227329,0.00980665,1.2088129779163023e-15,9.870707037799999
213,311.424,0.8,-0.010677667312086216,-0.02627901281841652,-0.386696092716443,0.2872008410781557,-0.017419726327060896,-0.00536767145618762,-0.9070758390426654,0.00980665,1.2084863145514084e-15,9.868039629
214,311.509,0.4,-0.022301532621926377,-0.05399810241498652,-0.7698965539208994,0.634583221260339,0.0063169305026572545,0.009306079111996546,-0.966509783267985,0.00980665,1.2081740628055542e-15,9.8654899
215,311.634,0.5,-0.016834492332350754,-0.05527387336493954,-0.8069420085892295,0.584550103072861,0.019682832509283384,0.02014398096129621,-0.9991524159908396,0.00980665,1.2081740628055542e-15,9.8654899
216,311.742,0.3333333333333333,-0.0120878631941444,-0.05636091112084594,-0.8388652663765747,0.5410790966874128,0.030724347412520954,0.029222197290665972,-1.027073068779063,0.00993026323529588,1.2081740628055542e-15,9.8654899
217,311.796,0.8333333333333334,-0.009310187884823948,-0.056637933963874496,-0.8533566319636301,0.5151017287441149,0.02737917733073383,0.028761015257977873,-1.036088212197571,0.012155301470588915,1.2081740628055542e-15,9.8654899
218,311.917,0.5362318840579711,-0.003086137654677917,-0.057258670334364624,-0.8858280252235244,0.45689318205633545,0.019883518443763903,0.02772762588843567,-1.0562888113390494,0.01714103529411755,1.2081740628055542e-15,9.8654899
219,312.002,0.6736842105263158,0.0010192991247699901,-0.05749663839513874,-0.9065717427954906,0.41627340052843176,0.015058761683051331,0.02628088625373577,-1.0673376895261546,0.0196133,0.0009286600378812275,9.86456123996212
220,312.105,0.9,0.005218118351194122,-0.05720891779077484,-0.9256976078378559,0.36783851832957926,0.010494209092221603,0.022431507819528188,-1.0715897444522757,0.0196133,0.004754739393942008,9.86073516060606
221,312.202,0.8090909090909091,0.009172346166369099,-0.0569379576099662,-0.9437093448194956,0.3222250855792169,0.006195552768820098,0.018806365022265792,-1.0755941068584274,0.0196133,0.008357940340910823,9.85713195965909
222,312.338,0.8773584905660378,0.014234116861402819,-0.055523853405602536,-0.9635306172182365,0.2529629823964157,-0.0041144825667765745,0.013736183407255242,-1.076848896631754,0.015793038755018994,0.009806650000001207,9.85950351124498
223,312.42,0.9245283018867925,0.017169147529418286,-0.05442052104474826,-0.9741647829948613,0.20991494213919665,-0.011369123669664059,0.01068219064499177,-1.0765486146551537,0.012563539558232402,0.009806650000001207,9.862733010441767
224,312.518,0.8448275862068966,0.02035257890417475,-0.0525886473734552,-0.9848796387657001,0.15817334727981974,-0.02081891474127341,0.005951804026963988,-1.0767601375579827,0.00980665,0.010904994799999764,9.8654899
225,312.642,0.8275862068965517,0.023354784487868287,-0.04864719850694538,-0.9921288088601302,0.09177458983307743,-0.03524190726876106,-0.0034514686018219855,-1.0788320941925047,0.00980665,0.01576909320000069,9.8654899
226,312.725,0.6147540983606558,0.025364325322115036,-0.046008970636619906,-0.9969810759394672,0.047330260251784356,-0.04489600710570971,-0.00974559463560698,-1.0802189683914187,0.00980665,0.019024901000001742,9.8654899
227,312.802,0.646551724137931,0.026483762881894128,-0.043176838206411224,-0.9970269971843372,0.006437005489391544,-0.04543882422149163,-0.014669784256036083,-1.0797531529078406,0.007393902777777409,0.0220260472222238,9.8654899
228,312.922,0.4588235294117647,0.027947506487366134,-0.038618107378915134,-0.9954186207475147,-0.05716521452365811,-0.04311256669461709,-0.021998875153562143,-1.0783664650387232,0.0027240694444440753,0.026695880555557133,9.8654899
229,313.033,0.38461538461538464,0.02886426942293355,-0.034483798440980325,-0.9909623057306175,-0.11612642580505395,-0.03963049518455189,-0.02917007045940528,-1.0762835803531832,0.0,0.031041210685485016,9.863868639314516
230,313.162,0.37142857142857144,0.029062213627237,-0.02984278970379704,-0.9798931762108912,-0.1849051867640325,-0.03294424284550149,-0.03828153642074486,-1.072275193468218,0.0,0.036142250403225655,9.858767599596776
231,313.218,0.2,0.029148142894221525,-0.027828088236490633,-0.975087972698447,-0.21476263338191373,-0.03004168369056196,-0.042236901489237345,-1.0705351185414096,0.0,0.038356655241937,9.856553194758064
232,313.322,0.0,0.02853979070203625,-0.024493153446940245,-0.9605015204735456,-0.268424963380699,-0.022928036422843377,-0.04493762632883892,-1.069252195111309,-0.0032037661354582204,0.03602283386454299,9.849275717729084
233,313.415,0.0,0.027811543860321974,-0.021608514687820546,-0.9460993434698751,-0.3159826896118869,-0.016153376375089238,-0.04623830098792429,-1.0685724756157253,-0.006837305776893518,0.03238929422310769,9.842008638446213
234,313.509,0.16666666666666666,0.02701142357139171,-0.01878443503513713,-0.9306396139687885,-0.3630243917416188,-0.010612626351416105,-0.04704875364899607,-1.0461869831084851,-0.00980665,0.030126028800002348,9.8353638712
235,313.602,0.0,0.025952288743601334,-0.01637294270144185,-0.9115735366731155,-0.40527389754692955,-0.010589538097381595,-0.045744354948401705,-0.9333985319137694,-0.00980665,0.03377410260000081,9.831715797400001
236,313.695,0.3333333333333333,0.024893153915810307,-0.013961450367745095,-0.8925074593774307,-0.44752340335226615,-0.010566449843347071,-0.04443995624780654,-0.8206100807189848,-0.00980665,0.037422176400001506,9.8280677236
237,313.802,0.6052631578947368,0.0233852902550185,-0.01180505201846119,-0.8763798370027852,-0.48028707603662757,-0.005673531428268723,-0.04226854894967556,-0.6491809363457978,-0.014498459019610655,0.036880695490195875,9.82157149098039
238,313.917,0.7160493827160493,0.02153022615962887,-0.009988396650872642,-0.8637541764347212,-0.502657531465672,0.0035292934589811094,-0.03939124735839255,-0.43116863381630627,-0.023343672745097334,0.03245808862745253,9.812726277254903
239,313.982,0.6486486486486487,0.020481711670929065,-0.008961591443103914,-0.856617933504937,-0.5153017019255826,0.008730890134389716,-0.03776494645896967,-0.3079442889081782,-0.028343141372552602,0.0299583543137249,9.807726808627447
240,314.122,0.639344262295082,0.018076545805710685,-0.00844076582210989,-0.8491765291830485,-0.5276143228075503,0.01377694005412811,-0.03156500405498772,-0.19475512462000769,-0.02941995,0.024376529999999966,9.80665
241,314.202,0.6721311475409836,0.016692842964222104,-0.008250500694335526,-0.845427724495322,-0.5337027425476197,0.016269451813126515,-0.027850932810378926,-0.1397401810300501,-0.02941995,0.021174358571429235,9.80665
242,314.315,0.6432748538011696,0.014559806838891647,-0.007957073097263727,-0.8421731626417645,-0.5389312669918828,0.01649781086295827,-0.03160488206148241,-0.09349374508857405,-0.02941995,0.0196133000000012,9.80665
243,314.402,0.7368421052631579,0.012845106215390489,-0.007721146324108156,-0.840495450446612,-0.541588787592223,0.015337724138051253,-0.03814699870347988,-0.07065430411696398,-0.02941995,0.0196133000000012,9.80665
244,314.515,0.7951807228915663,0.010486373368308348,-0.007289456933500579,-0.838595633425605,-0.5446001794888696,0.014199666939675809,-0.045621883809566534,-0.0442894204854964,-0.02941995,0.0196133000000012,9.8057085616
245,314.606,0.703030303030303,0.00819387930671249,-0.006567754840754842,-0.8378997233265759,-0.5457102993660701,0.014384314231574553,-0.04858838893473178,-0.03291291125118618,-0.02941995,0.0196133000000012,9.802138940999999
246,314.721,0.7911392405063291,0.005296771426673798,-0.005655713734537713,-0.8370202764981327,-0.5471131981119828,0.014617659710347689,-0.052337269037962555,-0.018536003977058037,-0.02941995,0.019613300000001197,9.797627881999999
247,314.811,0.7677419354838709,0.002839347321533934,-0.004713049095530732,-0.8366702305004071,-0.5476686104295859,0.013390479497611647,-0.055087234079837594,-0.013421202600002537,-0.023928226000000535,0.022359162000000928,9.79684335
248,314.921,0.7006802721088435,-0.00023056293858357384,-0.003480972418541316,-0.8363605039353569,-0.5481580003148873,0.011398282013833399,-0.05838406905531904,-0.009312750250100827,-0.015298373999999466,0.026674088000001463,9.79684335
249,315.018,0.773109243697479,-0.002929522346716975,-0.0023599986490954812,-0.8361480524057021,-0.5484858272023642,0.010053720890677442,-0.060468946051384725,-0.006136263874526025,-0.011908074999998894,0.027318525000002303,9.7978940625
250,315.133,0.7657657657657657,-0.006104289659495565,-0.0009249478296578979,-0.836082660822713,-0.5485556661080575,0.009726613663905696,-0.06041311185866122,-0.0037424890481543567,-0.020858588888888155,0.01836801111111305,9.802369319444443
251,315.226,0.7567567567567568,-0.008671710182003755,0.00023557152867001614,-0.836029778933861,-0.5486121445274442,0.009462083471820691,-0.06036795898976307,-0.0018066537537840092,-0.028096830555555927,0.011129769444445277,9.805988440277778
252,315.341,0.7238095238095238,-0.011848031323380864,0.0018291089943178352,-0.8360483806802562,-0.5485117431150404,0.007865796232199513,-0.06066215587368453,0.0008420704384279267,-0.025560304618473743,0.013666295381527459,9.810509645381526
253,315.411,0.6761904761904762,-0.013781608260903081,0.002815822936050948,-0.8360685723432766,-0.5484326535260762,0.00676013033343382,-0.060878192040934594,0.002481257457409331,-0.02280341506024134,0.01642318493975986,9.813266534939759
254,315.522,0.6016260162601627,-0.016838932222936306,0.004454504481065397,-0.8361020538606564,-0.5482911669333695,0.005101305786520588,-0.06142414599657032,0.004003857234493246,-0.0196133,0.01843650200000227,9.815279852
255,315.611,0.5942028985507246,-0.019271299909064683,0.005928678395106616,-0.8361320672675912,-0.5481429266354079,0.003975719375536208,-0.06230218809843035,0.0028938083732504326,-0.0196133,0.014945334600002325,9.8117886846
256,315.728,0.4608294930875576,-0.02246890686723401,0.007866637360756648,-0.836171523094685,-0.5479480489403346,0.0024960158914328887,-0.0634564681649207,0.0014345306567849054,-0.0196133,0.010355822400001595,9.807199172399999
257,315.844,0.4672489082969432,-0.02568827063136754,0.009904563742675426,-0.8362115944826772,-0.5477004740344051,0.00038502861869104603,-0.06489146518779074,0.0014263508274747207,-0.0196133,0.017841013855422028,9.810667181927709
258,315.943,0.48205128205128206,-0.028441581108654117,0.011657478955963143,-0.8362459049494747,-0.5474828135978366,-0.00149201986054504,-0.06615019975656476,0.001587890290531762,-0.0196133,0.02563907289156682,9.814566211445783
259,316.024,0.5641025641025641,-0.030698851662613286,0.013128209713104567,-0.8362758374021482,-0.5472839226340614,-0.002356310962654985,-0.06710195975999052,0.002150522439652118,-0.02089750416666722,0.026851541666666763,9.817740854166667
260,316.138,0.5240384615384616,-0.03388508996694809,0.01527290370697711,-0.8363217727515684,-0.5469614110000662,-0.0021981169314434328,-0.06828156424065417,0.0038235932976626343,-0.025333845833332782,0.01797885833333564,9.822177195833333
261,316.24,0.44541484716157204,-0.03673593476556494,0.017191840438337762,-0.8363628728010496,-0.5466728479591229,-0.002056574903517232,-0.06933699982861692,0.005320551433778097,-0.02930320416666722,0.010040141666666762,9.826146554166668
262,316.33,0.4233576642335766,-0.03933300764459297,0.019056718621094787,-0.8363857557702,-0.546379353517878,-0.0030278274548270886,-0.06981706681598218,0.004531789560843319,-0.02602083227091721,0.009806650000001204,9.833061535458166
263,316.435,0.44214876033057854,-0.04236620963048866,0.0212393172538374,-0.836411914220055,-0.5460353791987618,-0.004205053121192675,-0.07035899325552206,0.003526698117074089,-0.021918448804781585,0.009806650000001206,9.841266302390437
264,316.535,0.44144144144144143,-0.04543190931222247,0.02342286505716955,-0.8364280297049679,-0.5456750601918814,-0.004719666282021728,-0.07273723223961033,0.0034218176256820727,-0.017998550401606337,0.009806650000001206,9.847491349598394
265,316.635,0.423963133640553,-0.04875222404890351,0.025757341248063885,-0.8364314856253952,-0.5452676499504278,-0.004361433240708524,-0.07779510525694719,0.004543488789125182,-0.01406013674698868,0.009806650000001206,9.851429763253012
266,316.733,0.45161290322580644,-0.05200613249085248,0.028045127915141417,-0.8364348724274139,-0.5448683879138031,-0.0040103648602214164,-0.08275182081393967,0.005642726529299951,-0.010200491365461542,0.009806650000001206,9.855289408634539
267,316.832,0.44155844155844154,-0.05463138666963869,0.03000477648584234,-0.8364793030064839,-0.5444284206190059,-0.00546405175887046,-0.07119769708812256,0.006321241324767471,-0.013297817399999946,0.009806650000001207,9.8626655848
268,316.934,0.5,-0.05725957448898862,0.031983119149487774,-0.8365298273736387,-0.5439708803987081,-0.007171130867675464,-0.05737622602283536,0.006970313945785369,-0.017298930600001212,0.00980665000000121,9.870667811200002
269,317.052,0.42783505154639173,-0.059601906154424775,0.033863014802523704,-0.836668878501215,-0.5433983911139443,-0.007131368054076578,-0.04496982640027806,0.008265512028709463,-0.017298930599998985,0.007492280600000192,9.8776109194
270,317.135,0.4358974358974359,-0.0607584272790893,0.03489778591829866,-0.8368233798339008,-0.5429653369720345,-0.005686336752027345,-0.03876363906264336,0.009559403412043989,-0.014043122800000161,0.0042364728000013705,9.880866727199999
271,317.237,0.441025641025641,-0.06217969420337678,0.036169432349733806,-0.8370132489415388,-0.5424331499542656,-0.003910515151917444,-0.031136758238075057,0.011149486798793521,-0.010042009599998894,0.00023535960000010438,9.8848678404
272,317.339,0.5414847161572053,-0.06322875788358064,0.037274164297389785,-0.8373855695589635,-0.5416584754608412,-0.0043993444316627415,-0.029757422540920377,0.014864759474813017,-0.00980665,1.2115020471218884e-15,9.892664954216867
273,317.432,0.5547445255474452,-0.06416404701007847,0.03827190822577304,-0.837735435410151,-0.5409383363790692,-0.004974093512598312,-0.028855811131287733,0.01837331851024239,-0.00980665,1.212399155937596e-15,9.899990403614458
274,317.529,0.5052264808362369,-0.06510497774633804,0.03932122031890112,-0.8380585104099644,-0.5402510199262994,-0.005401670810324946,-0.028476525506234633,0.01876911729485248,-0.00980665,1.2131549709795405e-15,9.906162101792827
275,317.616,0.41947565543071164,-0.0658986020842513,0.04027494331783778,-0.8382874264460849,-0.5397273490711669,-0.005535160410273564,-0.028952437033691134,0.014377292186260363,-0.00980665,1.213571242844225e-15,9.909561219521912
276,317.746,0.4647887323943662,-0.06708881342975777,0.04169775071491043,-0.8386261990652882,-0.5389492648339534,-0.005700326955877384,-0.029537944585085428,0.008012283127754713,-0.00980665,1.2141933156910227e-15,9.9146408298
277,317.811,0.48044692737430167,-0.0677756956112311,0.04236055712955765,-0.8387260354002326,-0.5386536194227556,-0.005056879322976036,-0.027171643987298606,0.009009946137666454,-0.00980665,1.214505567436877e-15,9.9171905588
278,317.928,0.5107913669064749,-0.06901208353788336,0.04355360867592289,-0.8389057408031326,-0.5381214576825993,-0.0038986735837533842,-0.022912302911281504,0.010805739555507936,-0.00980665,1.2150676205794149e-15,9.921780071
279,318.03,0.41007194244604317,-0.0691546722454417,0.04391510473993955,-0.83913138511465,-0.5377222632935679,-0.002869457334978738,-0.005843124739834581,0.011103467021137898,-0.008355265800000873,1.2157353589282415e-15,9.9272325684
280,318.126,0.4866666666666667,-0.0677424513401478,0.04313332653289761,-0.8394578058106236,-0.5374535956754048,-0.0018685441694689996,0.032304881937794426,0.009287418041378608,-0.004589512200000732,1.2166577025467652e-15,9.934764075599999
281,318.221,0.5309278350515464,-0.06634494106928367,0.042359691848845485,-0.8397808262910141,-0.5371877266782644,-0.0008780571827664068,0.07005551354587422,0.0074902862384913635,-0.0008629851999996611,1.2175704384192627e-15,9.942217129600001
282,318.336,0.6150234741784038,-0.061386720023103636,0.03934429251331397,-0.8403755308454548,-0.5370310529256754,-0.0015239601095674367,0.10003673872352051,0.007641853094101048,0.0,1.216888288451396e-15,9.936646952399999
283,318.434,0.6190476190476191,-0.05650296158553117,0.0363555645636839,-0.8409233822598431,-0.5369308357124588,-0.0024462969733870703,0.12241759267450085,0.00824012175202387,0.0,1.2159467293408197e-15,9.928958538799998
284,318.526,0.6406926406926406,-0.05158047860289244,0.0333651901174711,-0.8414304216847918,-0.5368292832990372,-0.0028983742361887808,0.1362630525231363,0.008341328257694701,0.0,1.214745761087534e-15,9.919151888799998
285,318.653,0.6296296296296297,-0.043951776924102876,0.02878149752903718,-0.8421124136560042,-0.5366706581417046,-0.00250118298456065,0.13769188821315795,0.0073446644097564465,0.0,1.212305393596857e-15,9.899224775999997
286,318.762,0.6245210727969349,-0.03746695238042654,0.02487151642054658,-0.8426696757404779,-0.5365312887657818,-0.0019340070453379233,0.13792781353709221,0.006635666995557876,0.0,1.2103032694697462e-15,9.882876191832668
287,318.872,0.6666666666666666,-0.03122209027716673,0.02104065050254727,-0.8430978691947241,-0.5363752170193878,-0.0002799438543624839,0.13343150331917028,0.00662003426378465,0.0,1.2087243072243904e-15,9.869982986653387
288,318.938,0.695067264573991,-0.02747517301521278,0.01874213095174887,-0.8433547852672717,-0.5362815739715514,0.0007124940602222666,0.13073371718841853,0.00661065462472072,0.0,1.2077769298771774e-15,9.862247063545821
289,319.03,0.6367713004484304,-0.022526748130367445,0.015618439641569093,-0.8436736651822995,-0.5361310231015417,0.001970481229014054,0.1254694172143982,0.006074853770435654,0.0,1.2066272156953227e-15,9.852858934800004
290,319.161,0.6401869158878505,-0.01608874454422474,0.011348449892765861,-0.8440407945750271,-0.5358723120648512,0.003483962929341632,0.11464274275303109,0.0041540940254930474,0.0,1.2053686009658787e-15,9.842581565600003
291,319.234,0.6121495327102804,-0.012501154759582142,0.008968989956411063,-0.8442453781297531,-0.5357281448459321,0.004327353495172605,0.10860955774784482,0.0030837469920522885,0.0,1.20466723550596e-15,9.836854482000005
292,319.333,0.5990338164251208,-0.008528224609328545,0.006182927159694519,-0.8444467639427744,-0.5355050887383147,0.005092642372474064,0.09959025803208364,0.003906604286283227,0.0,1.204143613347527e-15,9.8325787826
293,319.426,0.6597938144329897,-0.004890274125978138,0.003612251065176943,-0.8446279161020334,-0.535292644163739,0.005771600808947983,0.09102920466661826,0.004919656604527975,0.0,1.2036968531573047e-15,9.828930708800002
294,319.562,0.6171428571428571,-0.0003349442342974146,0.000286387938811036,-0.8448510953307984,-0.534987044190807,0.006225230347365151,0.07732513666153133,0.005422496542334604,0.0,1.2027168630626236e-15,9.820928482400001
295,319.635,0.6442953020134228,0.0016997408440153749,-0.0012661814210402425,-0.8449484900913176,-0.5348257312009208,0.00617926912941041,0.06933338321745804,0.005167118400335434,0.0,1.2020154976027047e-15,9.815201398800003
296,319.732,0.6644295302013423,0.004403363482323211,-0.0033291845430357815,-0.845077905047076,-0.5346113838034007,0.0061181973740458495,0.05871420398354535,0.00482778032124042,0.0,1.2010835462381546e-15,9.8075914384
297,319.819,0.7300613496932515,0.005942323464084251,-0.0046541397804205666,-0.8451793596966928,-0.534423750209214,0.006562947062775424,0.049316709861160546,0.005562229733914013,0.0,1.2013285437618248e-15,9.809591994999998
298,319.936,0.6173469387755102,0.007821329738836244,-0.006322931616268958,-0.8453126531978081,-0.5341724086402372,0.007268542796373068,0.036706011146312334,0.006773459568619211,0.0,1.2018905969043625e-15,9.814181507199997
299,320.061,0.6384976525821596,0.009087654151092832,-0.007694438343198151,-0.8454533933593626,-0.5339153410274785,0.006907358625904252,0.024271461423491045,0.006551808176562796,0.0,1.2018473620472446e-15,9.8138284678
300,320.137,0.6268656716417911,0.009467485381437527,-0.00831178792904213,-0.8455380857644686,-0.5337650754863889,0.006100888969376978,0.017257804553958353,0.005619288047775965,0.0,1.2014822676982456e-15,9.8108472462
301,320.224,0.6861702127659575,0.009902292184595091,-0.009018490744415868,-0.84563503628084,-0.5335930609854048,0.005177693441510611,0.009229013137522928,0.004551797900349375,0.0,1.2010643307461021e-15,9.807434532
302,320.325,0.6436170212765957,0.009756339817744887,-0.009358962882342687,-0.845744860384898,-0.533415977990049,0.005087931653432708,0.0018450674151956796,0.0032968132328097624,0.0,1.2009682532858392e-15,9.80665
303,320.424,0.6649214659685864,0.00945578565200977,-0.00957653276307511,-0.8458518495981571,-0.5332478742399354,0.005237613626536807,-0.004923900585634174,0.0020628764583507,0.0,1.2009682532858392e-15,9.80665
304,320.522,0.6744186046511628,0.009020187590206013,-0.00967304568502351,-0.8459597099173762,-0.53308234041809,0.00534610583472893,-0.010998987833935419,0.0013231691631647494,0.0,1.2009682532858392e-15,9.80665
305,320.621,0.6511627906976745,0.008213340836451317,-0.009454798193944984,-0.8460738557492765,-0.5329174336734745,0.005350302446603893,-0.015474428927369506,0.0018557057840251807,0.0,1.2009682532858392e-15,9.80665
306,320.731,0.6480446927374302,0.007316844443390336,-0.009212300981635453,-0.8462006844513881,-0.5327342039572351,0.0053549653486871865,-0.020447141253408525,0.002447413140536907,0.0,1.2009682532858392e-15,9.80665
307,320.821,0.7094972067039106,0.006332176310881432,-0.00881566247781769,-0.8463081756344616,-0.532581034480772,0.005065907677635375,-0.023422811366619074,0.003371996595524766,0.0,1.2009682532858392e-15,9.80665
308,320.931,0.6417112299465241,0.00506729566181498,-0.008282425448014025,-0.8464404636292137,-0.5323930318585408,0.004641023846343151,-0.02679258506745107,0.004609710858203499,0.0,1.2009682532858392e-15,9.80665
309,321.032,0.6020408163265306,0.0038527899604149153,-0.007675523246215104,-0.8465540752691298,-0.5322317381174192,0.003546392674142745,-0.029217458431081575,0.004734336207789149,0.0,1.2009682532858392e-15,9.80665
310,321.141,0.643979057591623,0.002438586939922627,-0.006791994699899495,-0.8466613841377605,-0.5320797397897575,0.0009922699948550022,-0.030530434430962407,0.0028972282255789873,0.0,1.2009682532858392e-15,9.80665
311,321.228,0.6740331491712708,0.001309819391456833,-0.006086793016143331,-0.8467470343356583,-0.5319584200236425,-0.0010463416849425177,-0.03157840610059157,0.001430912680145874,0.0,1.2009682532858392e-15,9.80665
312,321.341,0.6519337016574586,-7.980860628264822e-05,-0.005168567711735374,-0.8468545741047513,-0.5317963862771733,-0.0018120211381465335,-0.03030069234967226,0.0022422924470156883,0.0,1.2009682532858392e-15,9.80665
313,321.428,0.6647058823529411,-0.0011392730591930854,-0.004461305494447587,-0.8469368647979474,-0.5316710269030186,-0.002144913990981849,-0.028957185946405048,0.003237265405245046,0.0,1.2009682532858392e-15,9.80665
314,321.562,0.6666666666666666,-0.0026481937500014976,-0.0034113277488688485,-0.847057607452428,-0.5314816146364899,-0.0012529493533109631,-0.027246728762093633,0.003492129757903802,0.0,1.2009682532858392e-15,9.80665
315,321.642,0.6942675159235668,-0.00347566991065063,-0.00280797903990273,-0.8471261081831971,-0.5313707237238855,0.0001181914203010827,-0.026439800012515308,0.002881527740129816,0.0,1.2009682532858392e-15,9.80665
316,321.729,0.6942675159235668,-0.004375550235356627,-0.0021518373189020282,-0.8472006027279086,-0.5312501298564284,0.001609307011604292,-0.025562264997348816,0.002217498045800557,0.0,1.2009682532858392e-15,9.80665
317,321.827,0.7133757961783439,-0.005214602007585097,-0.0014824853035600167,-0.8472693648608279,-0.5311343428505724,0.0009191387700454394,-0.023361124883753467,0.001986098320066291,0.0,1.2009682532858392e-15,9.80665
318,321.935,0.6745562130177515,-0.006098886125038992,-0.0007609647506445214,-0.8473416391643357,-0.5310113792680023,-0.000389575437889532,-0.020654901211340657,0.0018505692574565832,0.0,1.2009682532858392e-15,9.80665
319,322.056,0.6772486772486772,-0.006914830051617939,-2.1348630512807464e-05,-0.8474250482383219,-0.5308693471339566,-0.0015326070319118018,-0.017359517618598674,0.0015760074421556167,0.0,1.2006763845071523e-15,9.80426671055777
320,322.122,0.6878306878306878,-0.007266117726714967,0.0003451908829594865,-0.8474718505512367,-0.5307895855576813,-0.0019826709266857366,-0.015420712441561549,0.0013604061167864596,0.0,1.2003605920580808e-15,9.80168806952191
321,322.228,0.680628272251309,-0.007830307023082626,0.0009338755561116524,-0.8475470179022817,-0.5306614836321484,-0.002705500818291983,-0.012306873823897481,0.001014137321496781,0.0,1.1998534102459364e-15,9.797546615737051
322,322.322,0.7068062827225131,-0.008099501087298459,0.0013270747935781207,-0.8476063091422397,-0.5305618708164701,-0.0024375092485043625,-0.0098352788472507,0.000960154725373332,0.0,1.2001338456239177e-15,9.799836544377511
323,322.41,0.6756756756756757,-0.008300266527412684,0.0016666088011272123,-0.8476601824791653,-0.5304717175276663,-0.001985077779874597,-0.007585686298617626,0.0009657331905047246,0.0,1.2005582842033923e-15,9.803302348393576
324,322.538,0.7405405405405405,-0.00848999492715232,0.002081695489391892,-0.8477389693784111,-0.5303415664331862,-0.0012526316619273375,-0.004660627529659382,0.0009037942149717039,0.0,1.2009682532858392e-15,9.80665
325,322.634,0.7165775401069518,-0.008480634337741424,0.002276213153467135,-0.8477986906510103,-0.530245407445467,-0.0005930481470221796,-0.0029813935752931757,0.0007534821798831638,0.0,1.2009682532858392e-15,9.80665
326,322.762,0.7393364928909952,-0.008439568110018529,0.002510528155073548,-0.847878097506934,-0.5301180847728616,0.0001433497110188418,-0.0008028489440135433,0.0005773245704831525,0.0,1.2009682532858392e-15,9.80665
327,322.841,0.7526315789473684,-0.008290724505889229,0.0025469556814054573,-0.8479261494440224,-0.5300433449123796,-2.016173722039973e-05,0.00028062791496802613,0.0005734063261949201,0.0,1.2009682532858392e-15,9.80665
328,322.948,0.7052631578947368,-0.008089126206625571,0.002596294229728405,-0.8479912324474207,-0.5299421149747647,-0.00024162661015194882,0.001748121888524799,0.0005680993370956705,0.0,1.2009682532858392e-15,9.80665
329,323.022,0.6831683168316832,-0.00791028066401747,0.002606467288052924,-0.8480305353798239,-0.5298818489512498,-0.0006697334846606313,0.002875249370947187,0.0008571106542168859,0.0,1.2009682532858392e-15,9.80665
330,323.141,0.7407407407407407,-0.007498422491672552,0.002547342232491998,-0.8480757485557026,-0.5298156450218353,-0.002224770179635842,0.005041513622862297,0.002244372767991258,0.0,1.2009682532858392e-15,9.80665
331,323.219,0.7619047619047619,-0.007228465034169312,0.0025085879943932622,-0.848105384082749,-0.5297722508496141,-0.0032440379292828845,0.006461417922436109,0.0031536706240781493,0.0,1.2009682532858392e-15,9.80665
332,323.356,0.7253886010362695,-0.006637422681125967,0.002422370787866114,-0.8481872791171683,-0.5296490069084098,-0.0028334589660227124,0.007185728576746712,0.0033970919476666176,0.0,1.2009682532858392e-15,9.80665
333,323.412,0.7336683417085427,-0.006384101314884991,0.002385307809998379,-0.8482237486502042,-0.5295939116232371,-0.0024448177365372697,0.0073042476486666445,0.003360775628672609,0.0,1.2009682532858392e-15,9.80665
334,323.522,0.6984924623115578,-0.005898820620533497,0.002274862998827381,-0.848290546926052,-0.529493205052158,-0.0014551444078932446,0.0074476302039647255,0.0031338313673920184,0.0,1.200849109609918e-15,9.805677118055556
335,323.635,0.8074866310160428,-0.005443317398311721,0.0020299309540627152,-0.8483422680865906,-0.5294160043609403,0.00035182260242910563,0.0072825938640606255,0.0023571991949299788,0.0,1.2003105801947542e-15,9.801279691666668
336,323.722,0.7513513513513513,-0.005092620227220662,0.0018413549549961376,-0.8483820888031115,-0.5293565666606221,0.001743027291792162,0.007155530487320315,0.0017592611506451182,0.0,1.1998959602025485e-15,9.797894062500001
337,323.817,0.8,-0.00474082764634425,0.0016067310905780103,-0.8484228014767199,-0.5292952379647685,0.0010458963031425086,0.007051234095836221,0.0013540645463671298,0.0,1.2000979159686807e-15,9.799543156477732
338,323.925,0.757396449704142,-0.00435495710222456,0.001327042412958996,-0.8484678351264578,-0.5292271304441274,-0.0007470373756176068,0.006948216501547964,0.0010052410242814532,0.0,1.2006230356907653e-15,9.803831084412955
339,324.025,0.8047337278106509,-0.003998060612810183,0.0010898446808475623,-0.8485075658880726,-0.5291669230376648,-0.0020704377967626433,0.006897036795062843,0.0006420842554620933,0.0,1.2009682532858392e-15,9.80665
340,324.125,0.7848837209302325,-0.0036421215251897687,0.0009059539095481956,-0.8485424807387432,-0.5291137057345856,-0.0025694465544816966,0.006954087909177481,0.0001805752846950273,0.0,1.2009682532858392e-15,9.80665
341,324.237,0.8181818181818182,-0.0032434697470549124,0.0006999962456929092,-0.8485815853714942,-0.5290541023551368,-0.0031283363631270248,0.007017985156985874,-0.000336314762564076,0.0,1.2009682532858392e-15,9.80665
342,324.362,0.815028901734104,-0.0028830873094224225,0.0004686125147154146,-0.8486237030980401,-0.528988744312447,-0.002020959774116745,0.006395986896346831,-0.000729871575127996,0.0,1.2009682532858392e-15,9.80665
343,324.442,0.838150289017341,-0.00265714746325171,0.0003204423207345314,-0.848650573526895,-0.5289469799212247,-0.0012158971899207055,0.005959323681007474,-0.0009715452554668962,0.0,1.2009682532858392e-15,9.80665
344,324.522,0.815028901734104,-0.00245193463911019,0.0001752187393547063,-0.8486761719880003,-0.5289070606305702,-0.0003912452460012141,0.005315320868600997,-0.0011170772016949823,0.0,1.2009682532858392e-15,9.80665
345,324.645,0.8554216867469879,-0.002220435021513196,-3.611869071228093e-05,-0.8487103738163102,-0.5288531636686036,0.0009560608065633165,0.0034847343368682965,-0.000951130789960001,0.0,1.2009682532858392e-15,9.80665
346,324.726,0.8159509202453987,-0.0020679840538273264,-0.0001752921202686301,-0.8487328969715388,-0.5288176705473084,0.0018433111338621677,0.002279226133043972,-0.0008418490066222984,0.0,1.2009682532858392e-15,9.80665
347,324.817,0.8961038961038961,-0.001959785239139994,-0.0003013152194737263,-0.8487603697285147,-0.5287739273638006,0.0016886060422454537,0.0018363879803059786,-0.0003416010136291332,0.0,1.2009682532858392e-15,9.80665
348,324.925,0.868421052631579,-0.0018552406458919608,-0.00043940325010896305,-0.8487937955043605,-0.5287205486353823,0.0010692703973853542,0.0016557365815106839,0.0003949378887672056,0.0,1.2009682532858392e-15,9.80665
349,325.015,0.8486842105263158,-0.001771714513493168,-0.0005522014113866733,-0.8488214307972893,-0.5286763924324706,0.0006351782362908138,0.0015376320835203,0.0009688278986141481,0.0,1.2009682532858392e-15,9.80665
350,325.122,0.8343949044585988,-0.0016956091208292711,-0.0006716218390321447,-0.8488528693131006,-0.5286260000638515,0.000648451020941143,0.001606574938166911,0.0013936550146901614,0.0,1.2009682532858392e-15,9.80665
351,325.231,0.8427672955974843,-0.00161808119746141,-0.0007932744242036462,-0.8488848954647213,-0.5285746657818003,0.0006619718950241827,0.0016768064443022132,0.0018264228245244152,0.0,1.2009682532858392e-15,9.80665
352,325.333,0.8571428571428571,-0.001584434854942722,-0.000847595897578268,-0.848915824866481,-0.5285250099082547,7.611348836646104e-05,0.0006715987407434553,0.0012970047014072032,0.0,1.2009682532858392e-15,9.80665
353,325.41,0.8701298701298701,-0.0015661980289444198,-0.0008776445823924382,-0.8489393502855314,-0.5284872266287391,-0.00047635146499703943,-0.00028441656194299367,0.0007253031200172102,0.0,1.2009682532858392e-15,9.80665
354,325.522,0.922077922077922,-0.0015599732179882243,-0.0009092212357669218,-0.8489716798995811,-0.528435259445419,-0.0008684546692274825,-0.0016298108586699897,0.0002077429075780907,0.0,1.2009682532858392e-15,9.80665
355,325.619,0.8896103896103896,-0.0016190513747467003,-0.0008980472371091022,-0.8489936803921803,-0.5283997481801199,9.865680778146208e-05,-0.0026515659336299804,0.0007566538772944007,0.0,1.2009682532858392e-15,9.80665
356,325.724,0.8947368421052632,-0.0016830019568047964,-0.0008859516715516777,-0.8490174953583959,-0.5283613081506724,0.0011455300560893307,-0.003757589468379659,0.0013508358548219206,0.0,1.2009682532858392e-15,9.80665
357,325.82,0.8895705521472392,-0.0017597500097487249,-0.0008700266692629249,-0.849039805422288,-0.5283252241134706,0.001388234228517848,-0.003729690510499963,0.002692842029638347,0.0,1.2009682532858392e-15,9.80665
358,325.934,0.869281045751634,-0.0018585313692220263,-0.0008490810065455859,-0.849066522901976,-0.5282819817470882,0.0013777151388178748,-0.0032620691020674333,0.004620460443670077,0.0,1.2009682532858392e-15,9.80665
359,326.025,0.8431372549019608,-0.00193311763948346,-0.0008253097765634126,-0.8490862278912131,-0.5282500879459905,0.0011417382388242455,-0.002808075980283551,0.005352330244548144,0.0,1.2009682532858392e-15,9.80665
360,326.117,0.9047619047619048,-0.0019957738628387507,-0.0007802004729426464,-0.849101300879082,-0.5282256875105119,0.00022292881778128069,-0.002107831765897434,0.0036805795479138564,0.0,1.2009682532858392e-15,9.80665
361,326.233,0.8707482993197279,-0.002074775187938854,-0.0007233235248991044,-0.8491203059507425,-0.5281949217440388,-0.0009355700174461389,-0.0012249151477589251,0.0015727199738979252,0.0,1.2009682532858392e-15,9.80665
362,326.327,0.8846153846153846,-0.002110540391524826,-0.0006745955382534702,-0.8491350228932716,-0.5281711816706648,0.00023751773685229838,-0.0012903231033124204,0.0005899479584767722,0.0,1.2005887473178008e-15,9.8035510986
363,326.427,0.8636363636363636,-0.0021428815497469174,-0.0006222243877706926,-0.849150541108663,-0.5281461668080033,0.001912066645920787,-0.0015176372905262507,-0.00030904440488693655,0.0,1.2001083600164864e-15,9.7996284386
364,326.523,0.8431372549019608,-0.002178237490501117,-0.0005825708408007339,-0.8491653407579591,-0.528122275655696,0.0032782280351969038,-0.0017450244049542554,-0.0009590147528797545,0.0,1.1998873818578821e-15,9.797824015000002
365,326.642,0.9477124183006536,-0.0022372315901637036,-0.0005708134973952277,-0.8491833417278722,-0.5280930940005638,0.004121850755065718,-0.0020591560425236967,-0.0010146390181034826,0.0,1.200459042746446e-15,9.8024919804
366,326.73,0.8717948717948718,-0.0022808574789898394,-0.0005621189913474541,-0.8491966533694887,-0.5280715142892054,0.004745706211775738,-0.002291455068625583,-0.00105577292852105,0.0,1.2008817835716026e-15,9.8059439212
367,326.828,0.847682119205298,-0.002332482957139545,-0.0005646698887357112,-0.8492070606439454,-0.5280545468496617,0.004660348445177121,-0.0024285283219069066,-0.001432622736319826,0.0,1.2009682532858392e-15,9.80665
368,326.924,0.9266666666666666,-0.0023837253582073537,-0.0005698650716315251,-0.8492162819703512,-0.5280394827604518,0.004404790967702898,-0.0025359973739832505,-0.0018747460003941683,0.0,1.2009682532858392e-15,9.80665
369,327.018,0.8733333333333333,-0.002423846836608073,-0.0005700553420870236,-0.8492264708536872,-0.5280229167746442,0.00389660832720778,-0.002414597131579259,-0.0019713206535794036,0.0,1.2009682532858392e-15,9.80665
370,327.122,0.8980891719745223,-0.0024270819000116587,-0.0005502207236815337,-0.8492424908970245,-0.5279971555393618,0.0022784181521736824,-0.001352544087337709,-0.0007013314333094132,0.0,1.2009682532858392e-15,9.80665
371,327.205,0.9171974522292994,-0.002429663729458749,-0.0005343911724540874,-0.8492552761239186,-0.527976596091973,0.0009869779163301493,-0.0005049440616455808,0.0003122176559437473,0.0,1.2009682532858392e-15,9.80665
372,327.322,0.9,-0.002413426523512203,-0.0005149063644935766,-0.8492689740861453,-0.527954655655769,0.0004252051355769673,-9.358079178235779e-05,0.0004940771268666534,0.0,1.2009682532858392e-15,9.80665
373,327.402,0.91875,-0.0023941324011918785,-0.0005027493906468828,-0.8492765579234975,-0.5279425554343488,0.0005598310418278195,-0.0001351883142362733,0.0001045498274364283,0.0,1.2009682532858392e-15,9.80665
374,327.522,0.875,-0.0023700837184855764,-0.0004849862590424105,-0.8492884257900203,-0.5279235900944147,0.0006707505833537367,-0.0002901686077757445,-0.00025154461375402436,0.0,1.2009682532858392e-15,9.80665
375,327.616,0.8961038961038961,-0.002368317446248925,-0.00047271994847999097,-0.8492994394528391,-0.5279058900281758,0.0004400353014739072,-0.0007345795796913602,0.00026578225249627454,0.0,1.2009682532858392e-15,9.80665
376,327.719,0.8831168831168831,-0.002366382062840679,-0.00045927920392755056,-0.8493115076152896,-0.5278864952747438,0.0001872302585629931,-0.001221540538279819,0.0008326404144514724,0.0,1.2009682532858392e-15,9.80665
377,327.807,0.8831168831168831,-0.0023660380011191933,-0.00044531573910425393,-0.8493229953051131,-0.5278680252819129,-0.00021933469828214045,-0.001444735172204663,0.000895229040645076,0.0,1.2009682532858392e-15,9.80665
378,327.922,0.8622754491017964,-0.002366473498552647,-0.0004253916225783062,-0.8493388032270255,-0.5278426042632082,-0.0008794593242928491,-0.0016060550804249966,0.0006919651669450074,0.0,1.2009682532858392e-15,9.80665
379,328.011,0.9210526315789473,-0.002363799347186733,-0.0004088460476388162,-0.8493501949105596,-0.527824299627614,-0.0014320781507317969,-0.0016401352391455714,0.00047906362442335835,0.0,1.2009682532858392e-15,9.80665
380,328.122,0.9078947368421053,-0.0023363662031652675,-0.00037919906201901404,-0.8493576619625361,-0.5278124262750861,-0.002455334774630378,-0.0009562453627029673,-0.0002313652609204223,0.0,1.2009682532858392e-15,9.80665
381,328.21,0.9411764705882353,-0.0023146174043014093,-0.00035569514549161046,-0.8493635817875265,-0.5278030131667756,-0.0032665652512344134,-0.00041406239759548126,-0.0007945881610126185,0.0,1.2009682532858392e-15,9.80665
382,328.329,0.8203592814371258,-0.0022940801383326058,-0.00032228461646657884,-0.8493773190945104,-0.5277810159933571,-0.002391919510038828,-0.0003645281339191415,0.00011280337797410847,0.0,1.2009682532858392e-15,9.80665
383,328.418,0.9225806451612903,-0.0022820804054338355,-0.00029668085920443916,-0.8493897638602371,-0.5277610546589745,-0.0009911419004652229,-0.000586366310367808,0.0014234713954759852,0.0,1.2009682532858392e-15,9.80665
384,328.522,0.8709677419354839,-0.0022688784619784266,-0.0002709837831203405,-0.8494025288866328,-0.5277405825767896,0.0003377485610543923,-0.0009029952334238465,0.0027793625732881523,0.0,1.2009682532858392e-15,9.80665
385,328.614,0.9477124183006536,-0.0022597551090466966,-0.0002614046625247785,-0.8494082844518169,-0.5277313624765889,0.000553850345313437,-0.0013619202608240247,0.0034315066365521742,0.0,1.2009682532858392e-15,9.80665
386,328.762,0.8562091503267973,-0.0022445513064445212,-0.00024717482846187946,-0.8494178877263826,-0.527715977355214,0.0007574527748895731,-0.0019633066882213594,0.004215921179773911,0.0,1.2009682532858392e-15,9.80665
387,328.807,0.8783783783783784,-0.002238264204678021,-0.0002465741968545771,-0.8494218948319078,-0.5277095540326618,0.000364556218927883,-0.0017139507249828926,0.0036186812337918586,0.0,1.2009682532858392e-15,9.80665
388,328.922,0.8918918918918919,-0.002222197166830302,-0.0002450392494136936,-0.8494321352126942,-0.5276931388750283,-0.0006395127574183826,-0.0010767077078180963,0.0020924013718381434,0.0,1.2009682532858392e-15,9.80665
389,329.042,0.8607594936708861,-0.002193932194055588,-0.00025811161226812736,-0.8494407666410697,-0.5276793547970907,-0.0011232769526542492,-0.00028627288155280576,0.0007310591526331601,0.0,1.2009682532858392e-15,9.80665
390,329.124,0.8670886075949367,-0.0021600245503305793,-0.00028566645813756094,-0.8494440579234859,-0.5276741803650559,-0.0007381571158765636,0.0004131047734992735,9.433635137956844e-05,0.0,1.2009682532858392e-15,9.80665
391,329.212,0.8397435897435898,-0.002123635859503777,-0.00031523751224131344,-0.8494475900314447,-0.5276686273160429,-0.0003248577788472688,0.0011636564033105038,-0.000588975923135792,0.0,1.2009682532858392e-15,9.80665
392,329.356,0.868421052631579,-0.0020780559706003285,-0.00034050516566763104,-0.849447639656656,-0.5276687140488879,0.00014223183132706588,0.0012513175075873854,-0.0005457240436226305,0.0,1.2009682532858392e-15,9.80665
393,329.41,0.8881578947368421,-0.0020628409150157847,-0.0003468722417890886,-0.8494468879342583,-0.5276699798090781,0.00028926437720663205,0.0011308665666728654,-0.00037337308749548577,0.0,1.2009682532858392e-15,9.80665
394,329.522,0.9487179487179487,-0.0020325780844169094,-0.000361742448116547,-0.8494465169345673,-0.5276706853433868,0.0006750147677957459,0.000679099776782194,-0.00011564979609100859,0.0,1.2009682532858392e-15,9.80665
395,329.602,0.9426751592356688,-0.0020147438857817915,-0.00037722758554093047,-0.8494497237381026,-0.527665579648811,0.001186637122183881,-0.00023368284758152366,-0.00022302544023838322,0.0,1.2009682532858392e-15,9.80665
396,329.722,0.8407643312101911,-0.0019879925878291084,-0.00040045529167751127,-0.8494545339434054,-0.5276579211069473,0.0019540706537662655,-0.0016028567841274242,-0.0003840889064594833,0.0,1.2009682532858392e-15,9.80665
397,329.821,0.879746835443038,-0.0019636008450659606,-0.0004203984641897291,-0.8494567960434518,-0.5276543544963069,0.0020076577593571973,-0.0019138262760825424,-0.0004526733011007422,0.0,1.2009682532858392e-15,9.80665
398,329.925,0.87248322147651,-0.0019370152617272634,-0.0004416721393872192,-0.8494584654907215,-0.527651747732588,0.0018238550168461897,-0.0019013690878637122,-0.0004980860278010415,0.0,1.2009682532858392e-15,9.80665
399,330.018,0.9664429530201343,-0.0019141257064042136,-0.0004555524708351897,-0.8494616202239621,-0.5276467416579135,0.0012785164030634606,-0.0016752659029005484,-0.0005572663987593583,0.0,1.2009682532858392e-15,9.80665
400,330.122,0.9230769230769231,-0.0018926482062266764,-0.0004471096281005723,-0.8494728915412845,-0.5276286791864001,-0.0011064841605566388,-0.00042079689624495626,-0.0007099777363786832,0.0,1.2009682532858392e-15,9.80665
401,330.211,0.8933333333333333,-0.0018742684224209072,-0.0004398845030680662,-0.8494825371878392,-0.5276132218790474,-0.003147494258269141,0.0006527390806040927,-0.0008406634003028585,0.0,1.2009682532858392e-15,9.80665
402,330.322,0.8802816901408451,-0.0018339255317756718,-0.0004206654460097846,-0.8494915215601712,-0.5275989112411901,-0.0027574317142985724,0.0004718177970425819,-6.191430249790654e-05,0.0,1.2009682532858392e-15,9.80665
403,330.429,0.9084507042253521,-0.0017862953722158287,-0.00039701672783465147,-0.8494986539256976,-0.5275876089797433,-0.000908376355897242,-0.0004652163210466754,0.0011613265114027447,0.0,1.2009682532858392e-15,9.80665
404,330.522,0.8079470198675497,-0.0017528581146089225,-0.0003726697216636431,-0.849503223260715,-0.5275803838844356,0.0005041738806024708,-0.0011217704059489234,0.001859171563700113,0.0,1.2008629891361488e-15,9.805790452988047
405,330.622,0.8543046357615894,-0.0017445299397920977,-0.0003333294213296185,-0.8495024807328679,-0.5275816317758877,0.0013478418865031773,-0.0012798785070603398,0.0013417256337429643,0.0,1.200384515728465e-15,9.801883421115537
406,330.723,0.8445945945945946,-0.0017361184832271066,-0.00029359571799226304,-0.8495017307797426,-0.5275828921462542,0.0021999465724626896,-0.0014395676891828324,0.0008191052444863679,0.0,1.1999012575867047e-15,9.797937318924301
407,330.811,0.9324324324324325,-0.0017590946315067333,-0.00026435425207122794,-0.8494981771201016,-0.5275885514152883,0.0018029778028827476,-0.0015355448465771853,0.0005550045023548925,0.0,1.2000566749731042e-15,9.799206398192771
408,330.922,0.8581081081081081,-0.0018059145003791693,-0.0002306358156902934,-0.8494919874791906,-0.5275983746552292,0.0006315655521035135,-0.0016312025913811875,0.000334455121128968,0.0,1.2005920463631233e-15,9.803578037349398
409,331.013,0.9459459459459459,-0.0018392268968619142,-0.0002091816651957021,-0.849487450717196,-0.5276055766045445,-0.0002615159373744081,-0.0015748508246265125,0.00014723467675833475,0.0,1.2009682532858392e-15,9.80665
410,331.152,0.9403973509933775,-0.0018436315725498642,-0.00023313121423300918,-0.8494854482126512,-0.5276087750165678,-0.0010091962410597214,-0.0002535946372213603,-0.00019748316450690412,0.0,1.2009682532858392e-15,9.80665
411,331.235,0.8979591836734694,-0.001846261702636914,-0.000247432024089822,-0.8494842524725272,-0.5276106848597183,-0.0014556528252748049,0.0005353568991430654,-0.00040332187547828557,0.0,1.2009682532858392e-15,9.80665
412,331.322,0.9659863945578231,-0.0018424955911508964,-0.0002597348857083259,-0.8494864100088847,-0.5276072181374797,-0.0010158196585250928,0.0002548303415531547,-0.0004489967836998426,0.0,1.2009682532858392e-15,9.80665
413,331.407,0.9,-0.0018373798787035497,-0.0002711632901395647,-0.8494892689305833,-0.5276026270782436,-0.0003862245548516075,-0.00026308734947819146,-0.00045617408398538874,0.0,1.2009682532858392e-15,9.80665
414,331.522,0.922077922077922,-0.0018368442735911658,-0.00028742784420670485,-0.8494921319751962,-0.5275980104815402,0.0003989647278407569,-0.0008674623677507258,-0.0005610818819453974,0.0,1.2008681725980653e-15,9.805832779166666
415,331.616,0.922077922077922,-0.001859770296188804,-0.00030365888367000083,-0.8494907954454084,-0.5276000721015685,0.0007970375752645849,-0.001008994960492218,-0.000995140526414176,0.0,1.2004201923766015e-15,9.802174743055556
416,331.745,0.9012345679012346,-0.0018912326037962075,-0.0003259333952738904,-0.8494889612715506,-0.5276029013460753,0.001343329036091017,-0.0012032258590417536,-0.001590816751270391,0.0,1.199805411008848e-15,9.797154672222222
417,331.813,0.9155844155844156,-0.0019020261185942605,-0.000336670216578273,-0.8494895636616397,-0.5276018855702437,0.0016389311737143328,-0.0012313977245859771,-0.001843900047431164,0.0,1.1997672850325534e-15,9.79684335
418,331.927,0.9607843137254902,-0.0019188266100777643,-0.00035444558344126877,-0.8494909243225196,-0.5275996222278185,0.002136206008806964,-0.0012620381477405859,-0.002254570103797262,0.0,1.1997672850325534e-15,9.79684335
419,332.005,0.9072847682119205,-0.0019293765727428,-0.00036750999479138715,-0.8494921650359899,-0.5275975775337117,0.002424982868494913,-0.0012555223355344544,-0.002470958592514898,0.0,1.1997912087029376e-15,9.797038701593625
420,332.122,0.9324324324324325,-0.001924503597770381,-0.00040686738112672593,-0.8495008093021159,-0.5275836460910058,0.0017310905667294926,-0.0006439297787465332,-0.0013808826470663575,0.0,1.2003510225899275e-15,9.801609928884462
421,332.212,0.8716216216216216,-0.0019207551554839065,-0.00043714229369235793,-0.8495074587375975,-0.5275729295966166,0.0011973272576794025,-0.00017347396583295327,-0.0005423626890293854,0.0,1.2007816486568427e-15,9.805126257569722
422,332.322,0.9337748344370861,-0.001904218284220138,-0.00045702987675682455,-0.849519528171593,-0.5275535374672089,0.001219611850101595,4.211583919823608e-05,0.00022886178037166845,0.0,1.2009682532858392e-15,9.80665
423,332.408,0.9139072847682119,-0.001886155200002187,-0.00046522828617370023,-0.8495306573128326,-0.5275356733108028,0.001526767543982854,5.631870217621981e-05,0.0007228964366952341,0.0,1.2009682532858392e-15,9.80665
424,332.522,0.9205298013245033,-0.001866957023476375,-0.0004667849136843451,-0.8495423727949067,-0.5275168744399618,0.0017664411111708296,2.7320677956236238e-05,0.0009545049346254423,0.0,1.2010687327014528e-15,9.807470476693227
425,332.618,0.92,-0.0018684891776849408,-0.00043337191116723584,-0.8495409121343411,-0.5275192485876531,0.0013436608983990244,-0.00017545387831580317,-0.00042898435260645,0.0,1.201528067172829e-15,9.811221227290837
426,332.731,0.9066666666666666,-0.00187029265086794,-0.00039404202278772347,-0.8495391928151338,-0.5275220431573313,0.0008460133562822329,-0.0004141364289276729,-0.002057466534452255,0.0,1.2020687421235113e-15,9.815636173306771
427,332.816,0.9078947368421053,-0.001871976430274476,-0.0003847561817211214,-0.8495384097602189,-0.5275233056369473,0.0007258164687082325,-0.0005519769899546585,-0.0027895509768275026,0.0,1.201861773666284e-15,9.813946147600001
428,332.924,0.9539473684210527,-0.0018742522276608603,-0.00038142042155352895,-0.8495376275442041,-0.5275245596769366,0.0006790495729074018,-0.0007097306102513813,-0.0035142413731662314,0.0,1.2013429553808644e-15,9.8097096748
429,333.042,0.9395973154362416,-0.001863007399515807,-0.00037437405220673033,-0.849535663261482,-0.5275277669197116,0.0007191707054152413,-0.0006775411125273847,-0.004377830289303947,0.0,1.2009682532858392e-15,9.80665
430,333.123,0.9241379310344827,-0.0018369082688444568,-0.0003649837035245583,-0.8495328295798912,-0.5275324275528467,0.0008688125838525241,-0.00038164270995191823,-0.005066738139837818,0.0,1.2009682532858392e-15,9.80665
431,333.202,0.903448275862069,-0.001811453561152649,-0.00035582521530367554,-0.849530065865747,-0.5275369731086202,0.0010147596010938076,-9.305044077341008e-05,-0.005738635919988059,0.0,1.2009682532858392e-15,9.80665
432,333.322,0.9178082191780822,-0.0017850240364017036,-0.0003472692239980038,-0.8495297909660964,-0.5275375124494442,0.001057052374817436,-8.882163558153634e-05,-0.006119181215763096,0.0,1.2009682532858392e-15,9.80665
433,333.414,0.9436619718309859,-0.0017714619874853316,-0.00034364247915287624,-0.8495317285998037,-0.5275344401840825,0.0009912345809862176,-0.0003233224460854566,-0.006060424149036422,0.0,1.2009682532858392e-15,9.80665
434,333.522,0.9225352112676056,-0.0017609534403379065,-0.00034015947370527046,-0.8495336849302584,-0.5275313274423106,0.0009839566005393357,-0.000625211554579367,-0.005755558460951078,0.0,1.2009682532858392e-15,9.80665
435,333.611,0.9379310344827586,-0.0017719175615715866,-0.00034009741773899534,-0.849534143020783,-0.5275305529057261,0.001231724457815235,-0.0009704602896235131,-0.004649006880820041,0.0,1.2009682532858392e-15,9.80665
436,333.722,0.9655172413793104,-0.0017855919150203323,-0.0003400200220956635,-0.8495347143471678,-0.5275295869106602,0.0015407383022829069,-0.0014010514086111238,-0.003268925696611772,0.0,1.2009682532858392e-15,9.80665
437,333.84,0.9645390070921985,-0.0017907376202520521,-0.0003640212814943252,-0.849536625888984,-0.5275264741542304,0.001290783011354637,-0.0008789828326555616,-0.0019367113485936117,0.0,1.2009682532858392e-15,9.80665
438,333.925,0.9716312056737588,-0.0017921381247122227,-0.0003872245207773981,-0.8495383231161293,-0.5275237196937986,0.0009686788474209538,-0.0002623034338466693,-0.0010101925777271192,0.0,1.2009682532858392e-15,9.80665
439,334.004,0.8811188811188811,-0.0017925119740349485,-0.0004087160375376146,-0.8495398265519937,-0.5275212818683043,0.0006516537629066688,0.0002947934186451209,-0.00017215506100626,0.0,1.2009682532858392e-15,9.80665
440,334.123,0.8661971830985915,-0.0017392688183342346,-0.0004368066874132911,-0.8495378004427937,-0.5275246966686636,-0.0008499243296680697,0.0002030365461228071,-0.0002482845657961517,0.0,1.2009682532858392e-15,9.80665
441,334.242,0.9424460431654677,-0.0016860256626334955,-0.000464897337288981,-0.8495357743335937,-0.5275281114690229,-0.0023515024222435254,0.00011127967360044944,-0.0003244140705860798,0.0,1.2009682532858392e-15,9.80665
442,334.322,0.9136690647482014,-0.0016639033484177898,-0.0004941223095834398,-0.8495350962684804,-0.5275292455734523,-0.0012294630142279084,0.000309870962425713,-0.0002460028732150527,0.0,1.2009682532858392e-15,9.80665
443,334.414,0.9507042253521126,-0.001642090867336137,-0.0005304752378124366,-0.8495344980233396,-0.5275302415334775,0.0006265505871560369,0.0006073243449905983,-0.00012143861911966073,0.0,1.2009682532858392e-15,9.80665
444,334.522,0.8802816901408451,-0.0016202974359011098,-0.0005675100026118451,-0.8495334931632517,-0.5275318914977368,0.002477635011107086,0.0008128471514642645,-1.0188122709798836e-05,0.0,1.2009682532858392e-15,9.80665
445,334.628,0.9,-0.0016204236398100044,-0.0005720271698908176,-0.8495307993392275,-0.5275362242757866,0.0024449792106141905,0.00020380708486071424,-9.83917673763234e-05,0.0,1.2009682532858392e-15,9.80665
446,334.722,0.9428571428571428,-0.0016205355564839297,-0.0005760329597419818,-0.8495284104764136,-0.527540066550661,0.0024160202931959632,-0.0003362850496745034,-0.0001766100937787122,0.0,1.2009682532858392e-15,9.80665
447,334.811,0.9225352112676056,-0.001627689677847624,-0.0005718524845658931,-0.8495194084248466,-0.5275545443431882,0.0019796247141489046,-0.0007717607661624842,-0.0013667336622078443,0.0,1.2009682532858392e-15,9.80665
448,334.922,0.9295774647887324,-0.0016413105503776777,-0.0005613236876353721,-0.8495036880783485,-0.5275798268118944,0.001162731127035313,-0.0012642949904656583,-0.0035950168705434138,0.0,1.2009682532858392e-15,9.80665
449,335.005,0.9647887323943662,-0.0016508269334238308,-0.0005533017954805191,-0.8494924420165008,-0.5275979146654558,0.0005416943083158827,-0.0016068919511712863,-0.005154651886063927,0.0,1.2009682532858392e-15,9.80665
450,335.122,0.9375,-0.0016391089146224798,-0.0005363925638123836,-0.8494957148033039,-0.5275926985907167,-0.0007174083623532205,-0.0011239681950402335,-0.0033475921760158637,0.0,1.2009682532858392e-15,9.80665
451,335.202,0.9103448275862069,-0.0016310965940745505,-0.0005248306960051156,-0.849497952606246,-0.5275891320438865,-0.0015783332653745209,-0.0007937639173439053,-0.00211199579307746,0.0,1.2009682532858392e-15,9.80665
452,335.322,0.9797297297297297,-0.0016296429198066548,-0.000496101811655162,-0.8494983737645053,-0.5275884853530804,-0.0018015340284909258,-0.000595340706408027,-0.0019392373557204018,0.0,1.2009682532858392e-15,9.80665
453,335.402,0.9235668789808917,-0.001633879650335823,-0.00047133868861422155,-0.8494972080356747,-0.5275903717099482,-0.0014239817240741062,-0.0006093488410115246,-0.002652204609941699,0.0,1.2009682532858392e-15,9.80665
454,335.522,0.9,-0.0016375486316740912,-0.00043845816957157463,-0.8494959999099005,-0.5275923352898723,-0.0008128077247220652,-0.0005657567254887187,-0.003344255013009167,0.0,1.2009682532858392e-15,9.80665
455,335.617,0.9594594594594594,-0.0016291491769000544,-0.00043037278855430664,-0.8494973179442733,-0.527590245561766,-0.0001402366495934879,-0.000259369798190093,-0.0023039012360737106,0.0,1.2009682532858392e-15,9.80665
456,335.722,0.9054054054054054,-0.0016198655689919142,-0.0004214363147983847,-0.8494987747191063,-0.5275879358622803,0.0006031313808112944,7.926838461342928e-05,-0.0011540365352510655,0.0,1.2009682532858392e-15,9.80665
457,335.809,0.8926174496644296,-0.0016154857293983222,-0.000420035797744862,-0.8494968922756692,-0.5275909814491085,0.0005608764411619057,-0.00015764097060388618,-0.0008078886548535961,0.0,1.2009682532858392e-15,9.80665
458,335.922,0.8846153846153846,-0.001612300054838655,-0.00042275391969489077,-0.8494921125545993,-0.5275986849575169,8.603946462761285e-06,-0.0008564193547895858,-0.0008166966474536513,0.0,1.2009682532858392e-15,9.80665
459,336.006,0.9090909090909091,-0.0016102739151380074,-0.00042459976632815664,-0.8494888700839517,-0.5276039104479594,-0.0003699293107881722,-0.0013536192044349827,-0.0008017298567298298,0.0,1.2009682532858392e-15,9.80665
460,336.122,0.8888888888888888,-0.0016202265964552524,-0.00042063482186321304,-0.8494959731928704,-0.5275924460341369,0.0003006855097031555,-0.0012107694443935857,2.1115545274133615e-05,0.0,1.2009682532858392e-15,9.80665
461,336.202,0.9019607843137255,-0.0016270905146050726,-0.0004179003774046328,-0.8495008718886764,-0.5275845395418455,0.0007631784893520864,-0.0011122523685030224,0.0005885951328627541,0.0,1.2009682532858392e-15,9.80665
462,336.322,0.9539473684210527,-0.001629623431067244,-0.00041540044147163064,-0.8494947553687882,-0.5275943816064923,0.0012327009937295854,-0.0008622460388933772,0.00019376302543787154,0.0,1.2009682532858392e-15,9.80665
463,336.402,0.8657718120805369,-0.0016272181423363967,-0.000414578511347222,-0.8494835769737318,-0.5276123877148982,0.001427472224010167,-0.0006416624367058183,-0.0007265800601766503,0.0,1.2009682532858392e-15,9.80665
464,336.526,0.9459459459459459,-0.0016207602252465633,-0.0004099944564261416,-0.8494723321812748,-0.527630515905869,0.001663168666884308,-0.0004138961974531204,-0.0014128753095867164,0.0,1.2009682532858392e-15,9.80665
465,336.606,0.8918918918918919,-0.0016084286835811002,-0.00039713593274447054,-0.8494832691312383,-0.5276129537340628,0.0016172163914889238,-0.0006083611194043755,0.00035855081677382437,0.0,1.2009682532858392e-15,9.80665
466,336.722,0.9,-0.0015905479481661774,-0.00037849107340604617,-0.8494991277086854,-0.527587488584944,0.0015505855921656118,-0.000890335256233716,0.0029271186999967978,0.0,1.2009682532858392e-15,9.80665
467,336.805,0.8220858895705522,-0.0015881244710422987,-0.0003678222710034639,-0.8495027977140666,-0.5275815947252076,0.0012345560374670446,-0.0010335562075488107,0.003717314755544047,0.0,1.2009682532858392e-15,9.80665
468,336.922,0.9668874172185431,-0.001593880732345256,-0.0003551463695760261,-0.8495011808782096,-0.5275841893928815,0.0005517150294035301,-0.0011836717557162123,0.0039045734964311225,0.0,1.2009682532858392e-15,9.80665
469,337.002,0.9536423841059603,-0.0015978166375096698,-0.0003464790865487214,-0.8495000753494186,-0.5275859635246244,8.481519483035413e-05,-0.001286314865574228,0.004032613661140189,0.0,1.2009682532858392e-15,9.80665
470,337.122,0.9285714285714286,-0.0015616418250344174,-0.00034293626884978343,-0.8495129160105184,-0.5275653959995001,-0.0002009380841627601,-0.0006731098899618047,0.003948790170252327,0.0,1.2009682532858392e-15,9.80665
471,337.202,0.8830409356725146,-0.0015370498181840055,-0.00034068126164757753,-0.8495216402812436,-0.5275514218446407,-0.0003867555642500034,-0.0002556379893795743,0.003889790512621418,0.0,1.2009682532858392e-15,9.80665
472,337.322,0.9050632911392406,-0.0015114225512589592,-0.0003359323417884378,-0.8495236039816451,-0.527548337744454,0.0001959389574272347,8.915102882748577e-05,0.003704290097587392,0.0,1.2009682532858392e-15,9.80665
473,337.428,0.9367088607594937,-0.0014963916538757133,-0.00033081446665848493,-0.8495178253050216,-0.5275576892834251,0.001292533717365766,0.00020361899911891022,0.0034749082213691913,0.0,1.2009682532858392e-15,9.80665
474,337.522,0.9226190476190477,-0.0014842634053164694,-0.0003353047790192231,-0.8495149782906658,-0.5275623050755885,0.0018306044746997112,0.0001500898180704179,0.003501634184729684,0.0,1.2009682532858392e-15,9.80665
475,337.602,0.9702380952380952,-0.0014756645610756454,-0.000352079501238224,-0.8495158226766296,-0.5275609580819502,0.0016653518480902805,-0.00011789300539796765,0.0038545502561712864,0.0,1.2009682532858392e-15,9.80665
476,337.72,0.8881987577639752,-0.0014629812658204218,-0.0003768222165112661,-0.8495170681459262,-0.5275589712663339,0.0014216042238412148,-0.0005131676700140886,0.004375101461547982,0.0,1.2009682532858392e-15,9.80665
477,337.805,0.9681528662420382,-0.0014613521741992947,-0.0003864989814806368,-0.8495170305370483,-0.5275590297336177,0.0012195375980809035,-0.0006586844800040185,0.004112960631027723,0.0,1.2009682532858392e-15,9.80665
478,337.922,0.9299363057324841,-0.0014663431665973938,-0.0003919694896372739,-0.8495160780921437,-0.5275605455317987,0.0009158790702930805,-0.0007248463998548852,0.003138253259472299,0.0,1.2009682532858392e-15,9.80665
479,338.009,0.8961038961038961,-0.001469678242190764,-0.00039684878901509116,-0.8495148259386646,-0.5275625488318778,0.0006792473560198128,-0.0007559113157912327,0.002354969186707893,0.0,1.2009682532858392e-15,9.80665
480,338.122,0.935064935064935,-0.0014638716539818206,-0.0004250567400257439,-0.8494985401686058,-0.527588764556677,7.990000070994148e-05,-0.0003075707331299042,-0.00023908698465717904,0.0,1.2009682532858392e-15,9.80665
481,338.202,0.8896103896103896,-0.0014597607950728347,-0.00044502697082974196,-0.8494870104198918,-0.5276073243618447,-0.0003444167110137786,9.83852893115156e-06,-0.0020755869289860755,0.0,1.2009682532858392e-15,9.80665
482,338.322,0.8851351351351351,-0.0014677452977164354,-0.00047037679754389193,-0.84947022280764,-0.5276343084943173,-0.0003613908658735167,-0.0005287343473174494,-0.00240247999550765,0.0,1.2009682532858392e-15,9.80665
483,338.414,0.8378378378378378,-0.001482448746876342,-0.00048701856605430416,-0.8494576597905797,-0.5276544774504742,1.3028853572582188e-06,-0.0015570149314588885,-0.0011806813464501093,0.0,1.2009682532858392e-15,9.80665
484,338.539,0.8896103896103896,-0.0015057031054368948,-0.0004874096170904815,-0.8494428898838936,-0.5276781877890814,0.0006058732718228702,-0.002583156969398258,-8.738963864740905e-05,0.0,1.2009682532858392e-15,9.80665
485,338.615,0.9155844155844156,-0.001525174147849133,-0.0004514888235568663,-0.84943765159695,-0.5276865938590173,0.0011553509440274034,-0.0026033604890108144,-0.00034495480358605205,0.0,1.2009682532858392e-15,9.80665
486,338.722,0.9407894736842105,-0.001552587325982137,-0.0004009161273977258,-0.8494302766403318,-0.5276984287206377,0.0019289576667359844,-0.002631804917939003,-0.0007075794436968336,0.0,1.2009682532858392e-15,9.80665
487,338.802,0.8972602739726028,-0.0015587745375876569,-0.000370234776946642,-0.8494248188178048,-0.5277072191676409,0.0019485317291690714,-0.002420033391564965,-0.0014177349852401277,0.0,1.2009682532858392e-15,9.80665
488,338.922,0.910958904109589,-0.0015529856355411497,-0.0003317220183462296,-0.8494166912351765,-0.5277203437028375,0.0013893446819855364,-0.0018569420538841273,-0.0029453555019576198,0.0,1.2009682532858392e-15,9.80665
489,339.002,0.8874172185430463,-0.0015491263675101456,-0.0003060468459459608,-0.8494112728467577,-0.5277290933929687,0.0010165533171966016,-0.0014815478287636577,-0.00396376917976904,0.0,1.2009682532858392e-15,9.80665
490,339.122,0.9271523178807947,-0.0015391229614497744,-0.00027680051089638114,-0.8494100338056828,-0.5277311322256142,-0.0003370506632371503,-0.0004953473856933626,-0.002780518937480894,0.0,1.2009682532858392e-15,9.80665
491,339.202,0.9161290322580645,-0.0015323819812725398,-0.0002574613545992435,-0.8494093255311467,-0.527732301948189,-0.0012530330934961247,0.00016935221063346987,-0.0019453457715284395,0.0,1.2009682532858392e-15,9.80665
492,339.322,0.9444444444444444,-0.0015271677092436656,-0.00024665173172713854,-0.8494104528168256,-0.527730508428678,-0.0011849280724478902,0.0003326186504920841,-0.0012507731339007307,0.0,1.2009682532858392e-15,9.80665
493,339.402,0.9166666666666666,-0.0015263627269294332,-0.00024937210461011754,-0.8494123987210569,-0.5277273774198914,-0.00035293636157224815,-1.3327758794797764e-05,-0.0010921904058887573,0.0,1.2009682532858392e-15,9.80665
494,339.522,0.9477124183006536,-0.0015259140569234813,-0.00025692767567746645,-0.8494145884051797,-0.5277238504589055,0.0008012381177284147,-0.0006056367150652361,-0.0008290588296393382,0.0,1.2009682532858392e-15,9.80665
495,339.602,0.8758169934640523,-0.0015286799144464114,-0.0002760010449975262,-0.8494131029107092,-0.5277262232251491,0.0011917564779541766,-0.001296944735363863,-0.0005516173523031104,0.0,1.2009682532858392e-15,9.80665
496,339.722,0.9225352112676056,-0.0015328287007308078,-0.0003046110989776227,-0.8494108746690034,-0.5277297823745145,0.0017775340182929584,-0.0023339067658120494,-0.00013545513629867052,0.0,1.2009682532858392e-15,9.80665
497,339.802,0.9577464788732394,-0.001530103983085281,-0.00030224830873428675,-0.8494079679923758,-0.5277344698826552,0.001988743240013767,-0.002520133759826307,-0.0003375492626804547,0.0,1.2009682532858392e-15,9.80665
498,339.922,0.8783783783783784,-0.0015199295297997992,-0.00027493794646206877,-0.8494020323189558,-0.5277440674891432,0.0021067578103393845,-0.0022394931130109963,-0.0011723494911570107,0.0,1.2009682532858392e-15,9.80665
499,340.02,0.9183673469387755,-0.0015067978342798033,-0.00025107815094243505,-0.8493983732979018,-0.527750006117092,0.0021185730202123018,-0.0019170281589030319,-0.0016584363020955813,0.0,1.2009682532858392e-15,9.80665
500,340.122,0.896551724137931,-0.001463013764390057,-0.00021652534545904922,-0.8494019866503779,-0.5277443254704869,0.001602780954912091,-0.0009989079348739155,-0.0009424447594207536,0.0,1.2009682532858392e-15,9.80665
501,340.205,0.896551724137931,-0.0014273855506562682,-0.0001884088468794504,-0.8494049269273929,-0.5277397029835436,0.001183067803736714,-0.00025181010551739613,-0.00035982419038182805,0.0,1.2009682532858392e-15,9.80665
502,340.322,0.8571428571428571,-0.001400296799137462,-0.00015220823940754834,-0.8494031645479354,-0.5277426255815215,0.001170103523880358,7.749679870897413e-05,-0.00017613400984563653,0.0,1.2009682532858392e-15,9.80665
503,340.412,0.8895705521472392,-0.001393210367445724,-0.00012640250568454202,-0.849398297653805,-0.5277504841105405,0.0015041013685986619,-9.943939372898311e-05,-0.0004138234518468536,0.0,1.2009682532858392e-15,9.80665
504,340.522,0.9627329192546584,-0.0013816380924054975,-9.884097269146662e-05,-0.8493927734508345,-0.5277594124654359,0.0019280051514507257,-0.0003580364938826272,-0.0008720600316303555,0.0,1.2009682532858392e-15,9.80665
505,340.602,0.9367088607594937,-0.0013607836382612576,-9.579658383515598e-05,-0.8493905684386619,-0.5277630152550365,0.002303313098847883,-0.0007270218785852364,-0.0019219758445397496,0.0,1.2009682532858392e-15,9.80665
506,340.722,0.8670886075949367,-0.00132950195704489,-9.123000055068894e-05,-0.8493872609204031,-0.5277684194394374,0.0028662750199437525,-0.0012804999556392813,-0.003496849563904214,0.0,1.2009682532858392e-15,9.80665
507,340.81,0.9235668789808917,-0.0013233022952866469,-9.672546148960186e-05,-0.8493849738047929,-0.5277721151888977,0.002258010915413627,-0.0012873178264790626,-0.0028423577231083126,0.0,1.2009682532858392e-15,9.80665
508,340.922,0.89171974522293,-0.001328826552700396,-0.00011080702694734918,-0.8493821738349981,-0.527776604654723,0.0006655991005349734,-0.000976204812075693,-0.0005594118182271641,0.0,1.2009682532858392e-15,9.80665
509,341.002,0.8536585365853658,-0.0013327724508530722,-0.0001208652879885932,-0.8493801738565733,-0.5277798114160268,-0.0004718379100921749,-0.0007539812303590906,0.0010712638281158513,0.0,1.2009682532858392e-15,9.80665
510,341.13,0.8580246913580247,-0.0013356550943869792,-0.0001653820093835285,-0.8493890778575441,-0.527765460013241,0.0006624160200754156,-0.0003057115988985332,0.0012483933644114919,0.0,1.2009682532858392e-15,9.80665
511,341.237,0.8827160493827161,-0.0013379237585300363,-0.0002037637441737181,-0.8493970186602551,-0.527752662190638,0.0017320316146507654,7.28253381753896e-05,0.0012964809736064969,0.0,1.2009682532858392e-15,9.80665
512,341.322,0.8780487804878049,-0.001329039109453571,-0.0002413890342209957,-0.8493886496564834,-0.5277661350850739,0.0017989920568652498,8.807683829218339e-05,-0.00026676768437022434,0.0,1.2009682532858392e-15,9.80665
513,341.402,0.9573170731707317,-0.0013175822498240357,-0.00027886735300466524,-0.8493765225599165,-0.5277856612522247,0.0016353394952603056,1.976537052543497e-05,-0.0022018286027009858,0.0,1.2009682532858392e-15,9.80665
514,341.522,0.8888888888888888,-0.0013031480801768262,-0.000328238901179686,-0.8493604030257932,-0.5278116139567809,0.0015299962810239691,-0.0001381294149904828,-0.0045883805956692895,0.0,1.2009682532858392e-15,9.80665
515,341.606,0.9251700680272109,-0.0013065246484295719,-0.00032925392789972933,-0.8493592677944694,-0.5278134317737355,0.0021429206090978516,-0.0005202509257941966,-0.003730374006554591,0.0,1.2009682532858392e-15,9.80665
516,341.722,0.9387755102040817,-0.0013111875283976487,-0.00033065563146550316,-0.84935770009407,-0.5278159420923872,0.0029893399192949793,-0.0010479425359516202,-0.0025455077644440105,0.0,1.2009682532858392e-15,9.80665
517,341.827,0.9006622516556292,-0.001316405778541021,-0.0003477619018900095,-0.8493573581169314,-0.527816467728348,0.003262575467928282,-0.0011825358979554203,-0.0014566434378315554,0.0,1.2009682532858392e-15,9.80665
518,341.922,0.9194630872483222,-0.001321578320497439,-0.0003704035811661091,-0.8493575359513847,-0.5278161531592312,0.003286801026983854,-0.0011491177015892707,-0.00046408129198779124,0.0,1.2009682532858392e-15,9.80665
519,342.003,0.9463087248322147,-0.001325988593112908,-0.0003897085919172948,-0.8493576875786556,-0.5278158849476685,0.0033074565036522743,-0.0011206242920560497,0.00038220853762570934,0.0,1.2009682532858392e-15,9.80665
520,342.122,0.9210526315789473,-0.0012998721395428695,-0.0004076130891752619,-0.8493657929510909,-0.5278028917448125,0.0017757862640010729,-0.00023033927884939874,0.0019092657187556284,0.0,1.2009682532858392e-15,9.80665
521,342.202,0.9047619047619048,-0.0012819402768487398,-0.0004195295543553168,-0.8493713325261694,-0.527794012031754,0.0007281416476453491,0.0003779215568635581,0.0029391194869290488,0.0,1.2009682532858392e-15,9.80665
522,342.322,0.9319727891156463,-0.0012659633012261264,-0.00044546427289734124,-0.8493677105211955,-0.5277998576632446,0.0008464208804070178,0.0003441705821866686,0.002087586338779003,0.0,1.2009682532858392e-15,9.80665
523,342.421,0.9266666666666666,-0.001260405867656602,-0.00047248693019491896,-0.8493563933547158,-0.5278180590938233,0.0021235740457013837,-0.00034415402740926057,-0.0002877398729620685,0.0,1.2009682532858392e-15,9.80665
524,342.522,0.94,-0.0012603845375911307,-0.0004960947777631752,-0.8493459583884744,-0.5278348301830148,0.0031327071753661385,-0.001033047292982696,-0.002402121395488487,0.0,1.2009682532858392e-15,9.80665
525,342.602,0.8486842105263158,-0.0012809975705783227,-0.0005003280596288356,-0.8493417502250586,-0.5278415470894989,0.00285887853865793,-0.0015299941255437885,-0.002948549909766301,0.0,1.2009682532858392e-15,9.80665
526,342.722,0.8896551724137931,-0.0013119171200591181,-0.0005066779824273276,-0.8493354379799349,-0.5278516224492249,0.0024481355835955206,-0.0022754143743856036,-0.0037681926811832154,0.0,1.2009682532858392e-15,9.80665
527,342.802,0.9448275862068966,-0.0013321739558867362,-0.0005038354875418238,-0.8493338018590197,-0.5278542069651279,0.002026726780459017,-0.0024375513996928383,-0.0036949270591136924,0.0,1.2009682532858392e-15,9.80665
528,342.922,0.868421052631579,-0.0013621220585686546,-0.0004908878373826038,-0.8493345042752612,-0.5278530121687237,0.001213492462411224,-0.002269853992387591,-0.0028244949132200854,0.0,1.2009682532858392e-15,9.80665
529,343.003,0.9047619047619048,-0.001382337027878939,-0.0004821481735251348,-0.8493349784062242,-0.5278522056811509,0.0006645592977292528,-0.002156658242456609,-0.00223695321474221,0.0,1.2009682532858392e-15,9.80665
530,343.119,0.8571428571428571,-0.0014257401423087466,-0.0004944749407988698,-0.8493404825624327,-0.5278432199716404,0.00031196265341700577,-0.0015215478478928241,-0.0004313797545611839,0.0,1.2009682532858392e-15,9.80665
531,343.202,0.9020979020979021,-0.0014572616556051108,-0.0005040956522750237,-0.8493445763982507,-0.5278365381528554,7.364656217391432e-05,-0.0010518702873959184,0.0008916144138204759,0.0,1.2009682532858392e-15,9.80665
532,343.322,0.8661971830985915,-0.001502288566434822,-0.0005089050735720782,-0.849344594403389,-0.5278363783872223,-2.8071867066458904e-05,-0.0007171208326973491,0.0011209837973610005,0.0,1.2009682532858392e-15,9.80665
533,343.441,0.8380281690140845,-0.0015464661706625967,-0.0005057782348811749,-0.8493394920906744,-0.5278444637854199,8.176727194644725e-05,-0.0006839150531593037,-0.00011225259888568407,0.0,1.2009682532858392e-15,9.80665
534,343.522,0.90625,-0.001572471172569394,-0.0005010420427924925,-0.8493367450696855,-0.5278488131849184,0.000248099543410351,-0.0006848463387065843,-0.0008119529764534426,0.0,1.2009147688697011e-15,9.80621326659919
535,343.602,0.8986486486486487,-0.0015726033608634647,-0.00047997385943477033,-0.8493385948110046,-0.527845855242457,0.0009878887304739042,-0.0008336761353634863,-0.0006248053641206324,0.0,1.2005257912977866e-15,9.803037023684212
536,343.722,0.918918918918919,-0.0015728016433045708,-0.0004483715843981795,-0.8493413694229832,-0.5278414183287649,0.002097572511069497,-0.0010569208303488921,-0.00034408394562135056,0.0,1.199942324939915e-15,9.79827265931174
537,343.802,0.864516129032258,-0.0015701335063352357,-0.0004327940152514176,-0.8493391698121394,-0.5278449787854492,0.0021850003600118336,-0.0010801330320536697,-0.000851497828029628,0.0,1.1999786554451318e-15,9.7985693204
538,343.922,0.8580645161290322,-0.001562694538057969,-0.0004161661426083829,-0.8493309007364009,-0.5278583193239725,0.0015155168548223897,-0.0009607842862605613,-0.0024650350315502255,0.0,1.200555120206709e-15,9.803276512400002
539,344.002,0.8881578947368421,-0.0015577352258731257,-0.00040508089417969566,-0.849325388019242,-0.5278672130163216,0.0010691945180295326,-0.0008812184557318412,-0.0035407265005637026,0.0,1.2009394300477604e-15,9.8064146404
540,344.122,0.9342105263157895,-0.0015198547796682245,-0.000391337043702485,-0.8493300411969842,-0.5278598450651002,0.0007356964414938422,-0.00028966871835274597,-0.0027016438264397128,0.0,1.2009682532858392e-15,9.80665
541,344.202,0.9066666666666666,-0.0014935330268324202,-0.0003822756704778839,-0.8493335967278819,-0.5278542064839441,0.0005251533528789435,0.0001212662290782597,-0.00205619853921221,0.0,1.2009682532858392e-15,9.80665
542,344.322,0.86,-0.0014606354689168958,-0.00037154679854637843,-0.8493325469603005,-0.5278559958644115,0.00035546202652259794,0.00021355073672689356,-0.002278561617592968,0.0,1.2009682532858392e-15,9.80665
543,344.402,0.8974358974358975,-0.0014425450552538266,-0.0003660644102035247,-0.8493281236612883,-0.5278631663485073,0.0003275730711151986,-3.066170771427772e-05,-0.0031212800918924734,0.0,1.2009682532858392e-15,9.80665
544,344.522,0.8860759493670886,-0.0014144922435852098,-0.0003574186799706906,-0.8493216414007029,-0.5278736786290894,0.00021699113943383046,-0.0003417601166517702,-0.004181357236190185,0.0,1.2009682532858392e-15,9.80665
545,344.602,0.8924050632911392,-0.00139075757654363,-0.0003493384595136692,-0.8493181577197392,-0.5278793509866532,-0.00023396549948352663,-0.0002461555904810114,-0.003768687604937885,0.0,1.2009682532858392e-15,9.80665
546,344.722,0.8765432098765432,-0.0013551555759812519,-0.0003372181288281341,-0.8493129321982937,-0.5278878595229989,-0.0009104004578597226,-0.00010274880122483913,-0.0031496831580592882,0.0,1.2009682532858392e-15,9.80665
547,344.832,0.8709677419354839,-0.0012911601813842346,-0.0003030555989390459,-0.8493121046596988,-0.5278893642217558,-0.0014564337778009086,0.00018782776481075954,-0.0026503132124031893,0.0,1.2009682532858392e-15,9.80665
548,344.918,0.8580645161290322,-0.001229199744616207,-0.0002675789362529008,-0.8493129647966463,-0.5278881464360177,-0.001855174907379768,0.000475526271787136,-0.0022857794205524288,0.0,1.2009682532858392e-15,9.80665
549,345.002,0.8333333333333334,-0.0011686802482381404,-0.00023292731223387923,-0.8493138049304091,-0.5278869569708781,-0.002244642987433495,0.0007565341158105426,-0.0019297231587447488,0.0,1.2009682532858392e-15,9.80665
550,345.122,0.8733333333333333,-0.0010966887708069775,-0.00021199727644877602,-0.8493140507525024,-0.5278867205943665,-0.0016868373652148968,0.0006784341619705222,-0.00033470941800980655,0.0,1.2009682532858392e-15,9.80665
551,345.202,0.8679245283018868,-0.0010493832594703103,-0.00019940450422261484,-0.8493141691877554,-0.5278866326699969,-0.0012619103507015943,0.0006035323007907598,0.0007803645966774999,0.0,1.2009682532858392e-15,9.80665
552,345.322,0.906832298136646,-0.0009978550011789929,-0.00019265603120503195,-0.8493115078395181,-0.5278910197963985,-7.299145660379764e-05,0.0001313490355388118,0.0014536596285179486,0.0,1.2009682532858392e-15,9.80665
553,345.402,0.9192546583850931,-0.000975222516780357,-0.00019548000224447483,-0.849308021193988,-0.5278966703011794,0.0010522890465795819,-0.00040048041101526635,0.0012997609572485624,0.0,1.2009682532858392e-15,9.80665
554,345.522,0.9225806451612903,-0.0009468741926927055,-0.00019466154118551532,-0.8493038492446129,-0.5279034350373101,0.0024609410466509183,-0.0010689920736514605,0.001110081898560535,0.0,1.2009682532858392e-15,9.80665
555,345.602,0.9161290322580645,-0.0009587057237421874,-0.00016638140380567884,-0.8493068734847442,-0.5278985561818412,0.0018676445978061428,-0.0008055445528497425,0.0012095306009291277,0.0,1.2009682532858392e-15,9.80665
