,time,img_sim,orientation.x,orientation.y,orientation.z,orientation.w,angular_velocity.x,angular_velocity.y,angular_velocity.z,linear_acceleration.x,linear_acceleration.y,linear_acceleration.z
0,117.914,0.988399071925754,-0.00047260434948503017,0.0005061031539123675,-0.7072165286851516,-0.7069966775319606,0.0004333337082061911,-0.00038416075869463363,-0.0003671809402294458,0.0,-0.0098066499999988,9.80665
1,117.957,0.9953810623556582,-0.00047361843550488663,0.0005062833530889206,-0.7072156950437926,-0.7069975106293002,0.0004189734660321867,-0.0003774850054178397,-0.00037102420337032467,0.0,-0.0098066499999988,9.80665
2,118.037,0.9954022988505747,-0.0004752325549142702,0.0005066168227880498,-0.707214334523865,-0.7069988702470462,0.00040112279320601293,-0.0003768926573684447,-0.00037836799689102975,0.0,-0.0098066499999988,9.80665
3,118.124,0.9954022988505747,-0.00047673286741431567,0.0005069778011520939,-0.7072130331644739,-0.7070001707281993,0.00039000665070489104,-0.0003873162786476309,-0.0003865354752633716,0.0,-0.0098066499999988,9.80665
4,118.224,0.9931662870159453,-0.0004784573645408051,0.0005073927188119148,-0.7072115373490819,-0.7070016655341224,0.0003772294754162426,-0.0003992974525317555,-0.0003959233814384792,0.0,-0.0098066499999988,9.80665
5,118.325,0.9863636363636363,-0.00047979304715589123,0.0005085634964902951,-0.7072094816789667,-0.7070037200520045,0.00038093475587794377,-0.00040458027121251624,-0.0003637477722776108,0.0,-0.0098066499999988,9.80665
6,118.435,0.9954233409610984,-0.0004811385551914062,0.000510040747800243,-0.70720709629904,-0.707006104141347,0.000389436962138898,-0.00040850032342773843,-0.00031750269890047915,0.0,-0.0098066499999988,9.80665
7,118.532,0.9977116704805492,-0.0004820676433540289,0.0005109906204036874,-0.7072049907512507,-0.7070082089684125,0.00039145762519911,-0.0004103644869755955,-0.00029467819351702834,0.0,-0.0098066499999988,9.80665
8,118.642,0.9885844748858448,-0.00048258036957905993,0.0005113264778699276,-0.7072025986535607,-0.7070106011257254,0.00038224097643978965,-0.00040913197817280905,-0.0003065236061811437,0.0,-0.0098066499999988,9.80665
9,118.732,0.9977116704805492,-0.00048299987285408536,0.0005116012703423061,-0.7072006414827234,-0.7070125583453452,0.0003747000820003454,-0.00040812356187962007,-0.000316215307451784,0.0,-0.0098066499999988,9.80665
10,118.852,0.9954233409610984,-0.0004847653459190373,0.0005122699434632856,-0.7071982373033983,-0.7070149614548921,0.0004078556165455019,-0.00040749536199699636,-0.00035291871461048155,0.0,-0.0098066499999988,9.80665
11,118.932,0.9908675799086758,-0.0004860660341536122,0.0005127467289447393,-0.7071966555819805,-0.7070165423467324,0.00043439110731554627,-0.0004071500344008844,-0.00037982674387503236,0.0,-0.0098066499999988,9.80665
12,119.017,0.9977272727272727,-0.0004880151909825118,0.0005124505507295054,-0.70719497542139,-0.7070182217999457,0.0004519032423850154,-0.00040391196100972646,-0.0003975185690214862,0.0,-0.0098066499999988,9.80665
13,119.132,0.9613636363636363,-0.0004927208082180335,0.0005091221159127013,-0.7071927037889306,-0.7070204931101308,0.0004366388909984373,-0.00038905973848886726,-0.0003817090813536189,0.0,-0.0098066499999988,9.80665
14,119.227,0.9931350114416476,-0.0004966080572386815,0.0005063725393249068,-0.7071908272229859,-0.7070223694098491,0.0004240292094182218,-0.0003767905111890281,-0.00036864906980190365,0.0,-0.0098066499999988,9.80665
15,119.332,0.9954233409610984,-0.0004970954989491655,0.0005064751903845017,-0.7071886762490546,-0.7070245204737345,0.0004251296051074766,-0.00038502290527210056,-0.00037009387582714865,0.0,-0.0098066499999988,9.80665
16,119.452,0.9908466819221968,-0.0004968116290325864,0.0005072861184130283,-0.7071862010207902,-0.7070269958896279,0.0004297071483229244,-0.00039924282348247195,-0.00037525095863256616,0.0,-0.0098066499999988,9.80665
17,119.532,0.9977116704805492,-0.0004971305156246099,0.0005086176639869849,-0.7071843536968676,-0.7070288424368782,0.0004349068366868843,-0.0004119785930564065,-0.0003766899997514436,0.0,-0.0098066499999988,9.80665
18,119.637,0.9931350114416476,-0.0004983241290779547,0.0005115717482624485,-0.7071816283306941,-0.7070315654081835,0.00044500784249052334,-0.00043366052231581353,-0.00037552956939815345,0.0,-0.0098066499999988,9.80665
19,119.732,0.9931506849315068,-0.0004994040650595524,0.000514244491178344,-0.7071791625232038,-0.7070340290488882,0.00045414684774143434,-0.0004532775059314665,-0.0003744796562213672,0.0,-0.0098066499999988,9.80665
20,119.832,0.9977272727272727,-0.0005006931645352304,0.0005145347072653099,-0.7071768918873008,-0.7070362990149839,0.00045282174658495955,-0.0004269245750037975,-0.0003827111131977283,0.0,-0.0098066499999988,9.80665
21,119.932,0.9954441913439636,-0.0005020091448505921,0.0005143796532036792,-0.7071746785956795,-0.7070385119210957,0.00044956515601370475,-0.0003922771051293232,-0.0003925902105402203,0.0,-0.0098066499999988,9.80665
22,120.028,0.9977220956719818,-0.0005027484789342187,0.0005144693613924505,-0.7071726779156001,-0.7070405123966423,0.0004388236697996019,-0.0003728485286701477,-0.00039161269750911595,0.0,-0.0098066499999988,9.80665
23,120.126,0.9885844748858448,-0.0005023816013247629,0.0005150715661094008,-0.7071709011423258,-0.7070422893154895,0.0004115584817482145,-0.0003826241202186799,-0.00036822254338767256,0.0,-0.0098066499999988,9.80665
24,120.226,0.9908675799086758,-0.000502007236417155,0.0005156860607185336,-0.7071690881083724,-0.7070441024979867,0.0003837368612876164,-0.0003925992136355489,-0.0003443550391821192,0.0,-0.0098066499999988,9.80665
25,120.322,0.9977116704805492,-0.0005051803818684188,0.0005147707109659325,-0.7071673846213927,-0.7070458046663326,0.00038954029441811187,-0.0004165180755080664,-0.00034559280320536364,0.0,-0.0098066499999988,9.80665
26,120.43,0.9931350114416476,-0.0005098629192662992,0.0005132667841523851,-0.7071654798616095,-0.7070477074823635,0.00040631049615331104,-0.00044794476835523006,-0.0003545927166705956,0.0,-0.0098066499999988,9.80665
27,120.527,0.9657534246575342,-0.000512930581616829,0.0005129163083827704,-0.7071631423783985,-0.7070500433905804,0.0004198185695139202,-0.00045812417795930617,-0.00037432584154178337,0.0,-0.0098066499999988,9.80665
28,120.642,0.9954648526077098,-0.0005135544753646429,0.0005151492858641796,-0.7071587117094636,-0.7070544726444496,0.0004317185283932635,-0.0004224098566306866,-0.00042856691489071366,0.0,-0.0098066499999988,9.80665
29,120.724,0.997716894977169,-0.0005139993387326494,0.000516741495894402,-0.7071555524498753,-0.7070576308950346,0.0004402037164637529,-0.0003969439927267977,-0.00046724315849604333,0.0,-0.0098066499999988,9.80665
30,120.837,0.997716894977169,-0.0005142502385399065,0.000520063459975756,-0.7071522307568927,-0.7070609503992474,0.00045319824489724076,-0.00041935374425534975,-0.00047013704248507343,0.0,-0.0098066499999988,9.80665
31,120.92,0.9863325740318907,-0.0005143773236300327,0.0005226816371181015,-0.7071499539313588,-0.7070632254909995,0.0004629484872682486,-0.00044489716190336407,-0.0004643008518273909,0.0,-0.0098066499999988,9.80665
32,121.026,0.9908466819221968,-0.0005145703497552204,0.0005254864445481536,-0.7071470504013229,-0.7070661271610623,0.00047232435690239055,-0.00045585481857415616,-0.000457332497579046,0.0,-0.0098066499999988,9.80665
33,121.13,0.9954233409610984,-0.0005148326652661562,0.0005269591674497919,-0.7071442116791677,-0.7070689648992335,0.0004742212151177226,-0.00041518161015119767,-0.0004516470927046616,0.0,-0.0098066499999988,9.80665
34,121.238,0.9931350114416476,-0.0005151050698352049,0.0005284885335399548,-0.7071412637753913,-0.7070719117811807,0.00047619102941825976,-0.0003729440475581234,-0.00044574301841203147,0.0,-0.0098066499999988,9.80665
35,121.325,0.9908466819221968,-0.0005147557106239945,0.0005301143330111072,-0.7071382544455348,-0.7070749204052476,0.00046165601583197745,-0.0004022892331704491,-0.00042272055638022766,0.0,-0.0098066499999988,9.80665
36,121.443,0.988558352402746,-0.0005142143634062052,0.000532366177000678,-0.7071340975090564,-0.7070790763983749,0.00044002855289727573,-0.00044961137115023765,-0.00038932686531916447,0.0,-0.0098066499999988,9.80665
37,121.532,0.9931192660550459,-0.000514164744895769,0.0005344447870214002,-0.7071314433916187,-0.7070817291908809,0.000434105420914332,-0.0004683209303345716,-0.000379879633408884,0.0,-0.0098066499999988,9.80665
38,121.637,0.9953917050691244,-0.0005147009296105708,0.0005375274507808351,-0.7071291099876147,-0.7070840600146728,0.00044434324554897025,-0.00046223585587836457,-0.00039483115650212224,0.0,-0.0098066499999988,9.80665
39,121.728,0.9884526558891455,-0.0005151656230300657,0.0005401990927056783,-0.7071270877041445,-0.7070860800619592,0.0004532160268989891,-0.0004569621246829857,-0.0004077891431829274,0.0,-0.0098066499999988,9.80665
40,121.828,0.9607390300230947,-0.0005226470125405289,0.0005352350795529295,-0.7071245418304379,-0.707088624231772,0.00044794904962794255,-0.0004319271330853393,-0.00038774775499310967,0.0,-0.0098066499999988,9.80665
41,121.932,0.9908466819221968,-0.0005318085275165861,0.0005285075765910569,-0.7071218300212982,-0.7070913344181173,0.00043949654033181244,-0.00040207945231990225,-0.0003601138214942486,0.0,-0.0098066499999988,9.80665
42,122.041,1.0,-0.0005370008819014859,0.0005255083356481349,-0.7071188518568751,-0.7070943111057697,0.00043578619975596645,-0.0003902138713747253,-0.0003452467257156964,0.0,-0.0098066499999988,9.80665
43,122.132,0.9885844748858448,-0.0005362938326834579,0.0005276370894517732,-0.7071162100202735,-0.7070969519656408,0.00043857540807221086,-0.00040250920911785227,-0.00034895139676518734,0.0,-0.0098066499999988,9.80665
44,122.252,0.9885844748858448,-0.0005352689234624034,0.0005306049095418308,-0.7071127659063994,-0.7071003947329546,0.00044046146730478646,-0.00041993118065874747,-0.00035512288256237695,0.0,-0.0098066499999988,9.80665
45,122.332,0.9954128440366973,-0.0005335897802939523,0.0005343125953671582,-0.7071108962892483,-0.7071022628221374,0.0004224333166521773,-0.00044454986138069456,-0.00037307922528790363,0.0,-0.0098066499999988,9.80665
46,122.436,0.9930875576036866,-0.0005314068941749655,0.0005391325869400848,-0.707108465786952,-0.7071046913380751,0.00039899672080378194,-0.0004765541463192305,-0.0003964224708310918,0.0,-0.0098066499999988,9.80665
47,122.523,0.9907621247113164,-0.0005292251850887944,0.0005432632765389484,-0.7071064455461471,-0.7071067100691609,0.00039303687489813184,-0.00048548220458167124,-0.0004076817412934609,0.0,-0.0098066499999988,9.80665
48,122.64,0.9953810623556582,-0.000525169054197771,0.0005491293827456825,-0.7071037695863751,-0.7071093844780385,0.00042807666024947196,-0.00044118561853547384,-0.0003967357573971622,0.0,-0.0098066499999988,9.80665
49,122.732,0.9930555555555556,-0.0005219796179415818,0.000553742047455251,-0.707101665412879,-0.7071114874320279,0.0004556293119787294,-0.00040635411497778195,-0.000388128658948791,0.0,-0.0098066499999988,9.80665
50,122.847,0.9976415094339622,-0.0005194633611083893,0.0005595056956698161,-0.7070984280408308,-0.7071147220254006,0.0004294081379193816,-0.00040739375283010303,-0.00040292496839538193,0.0,-0.0098066499999988,9.80665
51,122.932,0.9952830188679245,-0.0005177920664050426,0.0005637655036259584,-0.7070959573533069,-0.7071171904983,0.00040224940201733037,-0.0004138779465574777,-0.00041713796718977503,0.0,-0.0098066499999988,9.80665
52,123.043,0.9882352941176471,-0.0005152510698906394,0.0005689171596717388,-0.7070929526077026,-0.7071201928878442,0.00039271409934233515,-0.0004281508316702967,-0.0004103773389942905,0.0,-0.0098066499999988,9.80665
53,123.121,0.9929411764705882,-0.0005130819199519223,0.0005720972995660504,-0.7070910783696394,-0.7071220660438085,0.00041376022155860306,-0.000444392230568348,-0.0003785323933698256,0.0,-0.0098066499999988,9.80665
54,123.239,0.9601873536299765,-0.0005098003854292471,0.0005769082804318048,-0.7070882429838514,-0.7071248997925748,0.00044559922696270766,-0.00046896255197822605,-0.0003303567063994705,0.0,-0.0098066499999988,9.80665
55,123.332,0.9953703703703703,-0.0005082652137130117,0.0005797282934000982,-0.7070858285257262,-0.7071273128976395,0.00043305817047029034,-0.00046967699252549694,-0.000355121461794739,0.0,-0.0098066499999988,9.803328392741935
56,123.45,0.9976851851851852,-0.0005064602559533481,0.0005831742779532756,-0.7070827405782657,-0.7071303991197673,0.00041202965005668855,-0.0004680480769527475,-0.0003950717275015909,0.0,-0.0098066499999988,9.798662325403225
57,123.532,0.9953703703703703,-0.0005059835825475506,0.0005851822078808341,-0.7070804247097345,-0.7071327135107487,0.0004199916000943637,-0.00048027503513731114,-0.00040640172688290454,0.0,-0.0098066499999988,9.7982555076
58,123.64,0.9976415094339622,-0.0005066644451338318,0.000587175947931829,-0.7070770884325269,-0.7071360473730688,0.0004684701266232902,-0.0005188609126489629,-0.00039367022784426737,0.0,-0.0098066499999988,9.8024919804
59,123.74,0.9929245283018868,-0.0005072948734544624,0.0005890220035346018,-0.7070739992869643,-0.7071391342826244,0.0005133576511871068,-0.0005545885770116,-0.00038188180280849333,0.0,-0.0098066499999988,9.8064146404
60,123.833,0.9882629107981221,-0.0005114226612325582,0.0005879962149476229,-0.7070708929122688,-0.7071422381938817,0.0005236789060290906,-0.0005365192180033766,-0.00038696005148813146,0.0,-0.0098066499999988,9.80665
61,123.932,0.9953051643192489,-0.0005160767560119481,0.0005867028972419748,-0.7070675689861743,-0.7071455594694186,0.0005323590477928525,-0.0005135181965306385,-0.00039354361314326565,0.0,-0.0098066499999988,9.80665
62,124.024,1.0,-0.0005207465671581526,0.000585312228526286,-0.7070645666719189,-0.7071485591824423,0.0005359098259359594,-0.0004929750412702549,-0.00039244227670133,0.0,-0.0098066499999988,9.80665
63,124.132,0.9976689976689976,-0.0005271536803111382,0.0005831731167201154,-0.7070612745482342,-0.7071518478819874,0.0005279616946354501,-0.0004710903530940394,-0.000371778110973535,0.0,-0.0098066499999988,9.80665
64,124.252,0.9976905311778291,-0.0005341722038883217,0.0005807456200135112,-0.7070575682043404,-0.7071555505200907,0.0005179248377680778,-0.0004492795206606389,-0.00035318989260122184,0.0,-0.0098066499999988,9.80665
65,124.332,0.9884526558891455,-0.0005375783331346843,0.0005784850152715551,-0.7070544838783566,-0.707158633627132,0.0004959626682102684,-0.0004664751440286634,-0.00039617598010227,0.0,-0.0098066499999988,9.80665
66,124.439,1.0,-0.0005421340310016944,0.0005754614564291889,-0.707050358592353,-0.7071627572827999,0.00046658826642669796,-0.0004894742902833964,-0.00045366987213492273,0.0,-0.0098066499999988,9.80665
67,124.532,0.9908045977011494,-0.000548564919424057,0.0005704179528070454,-0.707046981265078,-0.7071661330988196,0.00045563393970951457,-0.0004960423447191714,-0.0004769310490228232,0.0,-0.0098066499999988,9.80665
68,124.642,0.9765258215962441,-0.0005607994290567292,0.0005599287722019076,-0.7070433764886541,-0.707169735911259,0.00046997585915960384,-0.0004786750948987901,-0.0004544225726276634,0.0,-0.0098066499999988,9.80665
69,124.732,0.9906103286384976,-0.0005708094823925524,0.0005513467153431581,-0.7070404271261255,-0.7071726836668911,0.00048171015689149556,-0.000464465526863932,-0.0004360065464861682,0.0,-0.0098066499999988,9.80665
70,124.839,1.0,-0.0005761540910062532,0.0005493617145779266,-0.7070375981244057,-0.7071755093631615,0.0004725355976850288,-0.00045495053664893365,-0.00041068788948861587,0.0,-0.0098066499999988,9.80665
71,124.932,0.9976744186046511,-0.0005799415802121597,0.0005487117004351668,-0.7070352279124127,-0.7071778765196668,0.000461535703275824,-0.00044764592368380136,-0.00038823394766862845,0.0,-0.0098066499999988,9.80665
72,125.05,0.9976905311778291,-0.0005831541499203378,0.000548285911325703,-0.7070324320627993,-0.7071806694993706,0.0004523347509446077,-0.00045242488202898565,-0.0003713308216677423,0.0,-0.0098066499999988,9.80665
73,125.132,0.9884526558891455,-0.0005841185462755387,0.0005483075936937821,-0.7070306575497993,-0.7071824428195496,0.00044972653824472376,-0.0004669273193541598,-0.00036880762021305883,0.0,-0.0098066499999988,9.80665
74,125.239,0.9953917050691244,-0.0005853769659097641,0.0005483358865399343,-0.7070283420267383,-0.7071847567861245,0.000446323138746095,-0.00048585123147359244,-0.00036551515002219173,0.0,-0.0098066499999988,9.80665
75,125.332,0.9954128440366973,-0.0005852175210122661,0.0005498357480739859,-0.7070259489360634,-0.7071871482914688,0.0004590962366200981,-0.00046239393111318397,-0.0003658538232557475,0.0,-0.0098066499999988,9.80665
76,125.44,0.9908466819221968,-0.0005849139010949696,0.0005517169706881796,-0.7070231338936372,-0.7071899614708895,0.0004754164810292427,-0.0004313812120817595,-0.0003665496301837265,0.0,-0.0098066499999988,9.80665
77,125.532,0.9908675799086758,-0.0005844530230504663,0.0005533688004384672,-0.7070207434255027,-0.7071923504605603,0.0004826427560222331,-0.0004178131219614372,-0.00037724735963493326,0.0,-0.0098066499999988,9.80665
78,125.638,0.9908675799086758,-0.0005835595446491283,0.0005553603666790634,-0.7070180026880121,-0.7071950896891379,0.000479003204918087,-0.00042521127126006697,-0.00040768390717426886,0.0,-0.0098066499999988,9.80665
79,125.732,1.0,-0.000582767214746055,0.0005571264725905353,-0.7070155722226903,-0.707197518816367,0.00047577567846724094,-0.00043177189422300186,-0.000434674807822355,0.0,-0.0098066499999988,9.80665
80,125.833,0.9931192660550459,-0.0005886440032472311,0.0005528402802482566,-0.7070124468604796,-0.7072006417617236,0.0004653610563836988,-0.00044484553649090284,-0.0004390847790054976,0.0,-0.0098066499999988,9.80665
81,125.928,0.993103448275862,-0.0005954524295528241,0.0005476315722108235,-0.7070094093372974,-0.7072036768252442,0.0004542427534470332,-0.00045828933326993174,-0.0004385516911279409,0.0,-0.0098066499999988,9.80665
82,126.052,0.9632183908045977,-0.000599558350921489,0.0005443971388999728,-0.7070057745982432,-0.7072073096534938,0.00045120048051023107,-0.0004682061419051784,-0.0004332941953545375,0.0,-0.0098066499999988,9.80665
83,126.132,0.9977011494252873,-0.0005980753600547734,0.0005453909360181761,-0.7070037148395267,-0.707209369302729,0.0004591509643951473,-0.0004680089184539356,-0.0004259597308593367,0.0,-0.0098066499999988,9.80665
84,126.25,0.9908675799086758,-0.0005958923396031805,0.0005468844455893239,-0.7070006693703758,-0.7072124145815445,0.0004707629106967347,-0.0004679399435598475,-0.00041511094563507654,0.0,-0.0098066499999988,9.80665
85,126.332,0.9954337899543378,-0.0005945523081141101,0.0005490370993292001,-0.7069982577908789,-0.7072148248659418,0.00047419644210354526,-0.00047683690707864425,-0.0004063446656800814,0.0,-0.0098066499999988,9.80665
86,126.436,0.9931506849315068,-0.0005928527559816301,0.0005517672943163606,-0.7069951992022487,-0.7072178818120066,0.00047855116486340344,-0.00048812086080980347,-0.00039522645695667073,0.0,-0.0098066499999988,9.80665
87,126.53,1.0,-0.0005914930412406577,0.0005545909466525541,-0.7069924177149937,-0.7072206613445706,0.0004837333181630971,-0.00048690813654982264,-0.0003993920810011003,0.0,-0.0098066499999988,9.80665
88,126.641,0.9931192660550459,-0.0005902083529278749,0.0005585728330572467,-0.7069891022787643,-0.707223973617483,0.0004921196089089509,-0.00046471653984654106,-0.0004301698540161406,0.0,-0.0098066499999988,9.80665
89,126.732,0.9954022988505747,-0.0005891551399867649,0.0005618372624520844,-0.7069863842184322,-0.7072266890844653,0.0004989948562771728,-0.00044652342903574453,-0.00045540208234378363,0.0,-0.0098066499999988,9.80665
90,126.847,0.9907192575406032,-0.000587253199625368,0.0005675354871755004,-0.7069825345591911,-0.707230534399389,0.0005089408955555481,-0.00044499824700660137,-0.0004604794258012409,0.0,-0.0098066499999988,9.80665
91,126.932,0.9930394431554525,-0.0005857841158676217,0.0005719215993466225,-0.7069796431759708,-0.7072334224532937,0.0005164317387889283,-0.00044625087703828784,-0.00046125988300186563,0.0,-0.0098066499999988,9.80665
92,127.042,1.0,-0.0005840744983800719,0.0005773194334584657,-0.7069759016728732,-0.7072371596360735,0.000510762337793732,-0.0004611582376074019,-0.00045056420886718275,0.0,-0.0098066499999988,9.80665
93,127.126,0.9953810623556582,-0.0005829724844211299,0.0005811457241302331,-0.7069730448299258,-0.7072400131673411,0.00049011008809339,-0.00048665808809669053,-0.00042995989908913034,0.0,-0.0098066499999988,9.80665
94,127.252,0.9907834101382489,-0.0005814142875422455,0.0005866087859969317,-0.7069687770130292,-0.707244276169006,0.0004598639300093059,-0.0005221771285869192,-0.00040160332922823603,0.0,-0.0098066499999988,9.80665
95,127.332,0.9953917050691244,-0.0005818819353909448,0.0005858308860957617,-0.706966335370612,-0.7072467170940472,0.00045191058423370186,-0.000502770936582239,-0.00042277849395759234,0.0,-0.0098066499999988,9.80665
96,127.452,0.9655172413793104,-0.0005825834071639939,0.0005846640362440066,-0.7069626729069864,-0.7072503784816091,0.00043998056557029505,-0.000473661648575217,-0.0004545412410516287,0.0,-0.0098066499999988,9.80665
97,127.532,0.9908045977011494,-0.00058212367195458,0.0005850570657780672,-0.7069603735432821,-0.7072526769562831,0.00044435089919716035,-0.00046006176853552493,-0.0004635434271767738,0.0,-0.0098066499999988,9.80665
98,127.646,0.9953488372093023,-0.0005797694510354071,0.0005877624428650799,-0.706957357624931,-0.7072556912932709,0.000473157365806401,-0.00045131993247196075,-0.00045406890660524353,0.0,-0.0098066499999988,9.80665
99,127.732,0.9953488372093023,-0.0005779934598156803,0.0005898033413693174,-0.7069550824584555,-0.707257965266788,0.0004948885599151252,-0.0004447252140380443,-0.0004469214612618089,0.0,-0.0098066499999988,9.80665
100,127.84,1.0,-0.000578067555119281,0.0005923667359691803,-0.7069510932455679,-0.7072619505148818,0.0005120539933858642,-0.00045494732829144777,-0.00045121746347378573,0.0,-0.0098066499999988,9.80665
101,127.932,0.9953810623556582,-0.0005784472887933634,0.0005945504241585109,-0.7069475394918007,-0.7072655005523244,0.0005252852839273046,-0.00046619740073602505,-0.00045670051474599115,0.0,-0.0098066499999988,9.80665
102,128.045,0.9930715935334873,-0.0005787399959683909,0.0005974195922093541,-0.7069430304503858,-0.7072700048830041,0.0005316776256207913,-0.00047551073324698234,-0.0004659326589034183,0.0,-0.0098066499999988,9.80665
103,128.132,0.9953810623556582,-0.0005787775532006616,0.0005998308048587108,-0.7069394030883704,-0.7072736284601931,0.0005259399365888066,-0.0004778109176690319,-0.00047574079984492266,0.0,-0.0098066499999988,9.80665
104,128.243,0.993103448275862,-0.0005788254710487312,0.0006029071796182339,-0.7069347750747648,-0.7072782516448827,0.0005186194367893801,-0.00048074563572474946,-0.0004882546348392522,0.0,-0.0098066499999988,9.80665
105,128.329,0.9954337899543378,-0.0005785330584364201,0.0006048043955554781,-0.7069316716622682,-0.7072813521293458,0.00048756782757118584,-0.00048440808011218883,-0.0004702805876731886,0.0,-0.0098066499999988,9.80665
106,128.431,0.9977116704805492,-0.0005781671777422212,0.0006070264476253078,-0.7069280187720534,-0.7072850015938306,0.00044927079882472847,-0.0004888322539627551,-0.0004473616899922495,0.0,-0.0098066499999988,9.80665
107,128.532,0.9977116704805492,-0.000579475149924521,0.0006078139153738223,-0.7069243306360965,-0.7072886861011676,0.0004886195599101422,-0.0004916369006969035,-0.00042640327243134436,0.0,-0.0098066499999988,9.80665
108,128.652,0.9931192660550459,-0.0005847713276862589,0.0006055842102894431,-0.7069197894894269,-0.707293222406794,0.0007084910734556115,-0.0004914378584362567,-0.00040539112640545247,0.0,-0.0098066499999988,9.80665
109,128.732,0.9954128440366973,-0.0005883021128607521,0.0006040977402331899,-0.7069167620583138,-0.707296246610545,0.0008550720824859765,-0.0004913051635958255,-0.00039138302905485285,0.0,-0.0098066499999988,9.80665
110,128.837,0.9745958429561201,-0.0005907998030524088,0.0006042747788688801,-0.7069126122246916,-0.7073003919354305,0.0007455854527249266,-0.0004956871349049179,-0.00041164791323317345,0.0,-0.023705838976373406,9.785801216535438
111,128.951,0.9953810623556582,-0.0005931249824828985,0.0006048520644457816,-0.7069080747836595,-0.7073049244318945,0.0005720893987161346,-0.0005012691469210393,-0.0004406436896464922,0.0,-0.04131147834645346,9.759392757480319
112,129.043,0.993103448275862,-0.0005945649275447149,0.0006052783484355427,-0.7069047037609995,-0.7073082919854997,0.000498043452473694,-0.0005027669803127198,-0.00043832104027562917,0.0,-0.04241671506023939,9.75773490240964
113,129.132,0.9954233409610984,-0.000595455202008271,0.0006056451313392399,-0.7069017775322366,-0.7073112154586852,0.0005023849875120126,-0.0005007530003879594,-0.0004064503624234862,0.0,-0.028395962449797568,9.778766031325302
114,129.246,0.9977116704805492,-0.0005965955535683316,0.0006061149431484702,-0.7068980293291022,-0.707314960132204,0.0005079460548644658,-0.0004981732957652323,-0.00036562724697242443,0.0,-0.0104367961847363,9.805704780722893
115,129.332,0.9977116704805492,-0.0005963932417555797,0.0006065168397146784,-0.706895035345565,-0.70731795214192,0.0005228290860541154,-0.0004825962698087108,-0.0003777532163076092,0.0,-0.0098066499999988,9.80665
116,129.427,0.9931192660550459,-0.0005961125003643812,0.0006069633535491382,-0.7068917190720824,-0.707321266272139,0.0005398455625399934,-0.00046465458138846005,-0.0003934610716532903,0.0,-0.0098066499999988,9.80665
117,129.532,0.9472477064220184,-0.0005964501340540644,0.0006079701054075017,-0.7068881781734425,-0.7073248038629296,0.000546908285934476,-0.0004611811572685873,-0.00040554651757702227,0.0,-0.0098066499999988,9.80665
118,129.641,0.9370786516853933,-0.0005983350209311809,0.0006102306333392632,-0.7068847971151156,-0.7073281792637467,0.0005264261798001843,-0.0004963109954260261,-0.0004055982897989451,0.0,-0.0098066499999988,9.80665
119,129.732,0.9484304932735426,-0.0005999086420854712,0.0006121178630804591,-0.706881974396696,-0.7073309972589242,0.0005093264398165049,-0.0005256395759060977,-0.00040564151247963305,0.0,-0.0098066499999988,9.80665
120,129.841,0.950561797752809,-0.0006029456656350056,0.0006146746513350796,-0.70687811497025,-0.7073348493809405,0.0004819530863258737,-0.0005325335047551877,-0.0004336378028911819,0.0,-0.0098066499999988,9.80665
121,129.932,0.9887640449438202,-0.0006056714234617125,0.0006168581413991331,-0.7068748138837111,-0.7073381440973172,0.0004579620989858678,-0.000533626175926901,-0.0004616255437614871,0.0,-0.0098066499999988,9.80665
122,130.033,0.9886877828054299,-0.0006093270861551911,0.0006175293307173418,-0.7068710388672306,-0.7073419128984179,0.0004624322409726681,-0.0005293660099150634,-0.000481768849582237,0.0,-0.0098066499999988,9.80665
123,130.149,0.9932126696832579,-0.0006149523562144002,0.0006143344340351103,-0.7068664515920564,-0.7073464949697618,0.0005379476813150521,-0.0005120865810955631,-0.0004801890222389117,0.0,-0.0098066499999988,9.80665
124,130.239,0.9386363636363636,-0.0006193167898810276,0.0006118556348851033,-0.7068628924992489,-0.7073500500251148,0.0005965372470979316,-0.0004986801277011241,-0.000478963294127711,0.0,-0.0098066499999988,9.80665
125,130.332,0.9636363636363636,-0.000620594117940182,0.0006123571233753218,-0.7068596395644838,-0.707353299138505,0.0005745979300266556,-0.0005031383993680986,-0.00048240191121265116,0.0,-0.0098066499999988,9.80665
126,130.436,0.9954648526077098,-0.0006215375974143103,0.0006133774050143533,-0.7068560655987347,-0.7073568688834927,0.0005376902781238392,-0.0005108709746372209,-0.0004869530885668869,0.0,-0.0098066499999988,9.80665
127,130.544,0.9931972789115646,-0.0006223521249121196,0.0006144308612228904,-0.7068523313063653,-0.7073605988847592,0.0005196440353411665,-0.0005177685994610722,-0.00048424660922083337,0.0,-0.0098066499999988,9.80665
128,130.652,0.9887640449438202,-0.0006229521924407275,0.0006154764431984116,-0.7068485673363288,-0.707364358683091,0.0005279198560860038,-0.0005231965692132232,-0.0004718934315562328,0.0,-0.0098066499999988,9.80665
129,130.732,0.9707865168539326,-0.0006233966869063632,0.0006162509483654644,-0.706845779210376,-0.7073671437188923,0.0005340500936747744,-0.0005272172875481515,-0.0004627429295824511,0.0,-0.0098066499999988,9.80665
130,130.836,0.9728506787330317,-0.0006246220139352477,0.0006167699197588863,-0.7068423458480868,-0.7073705729857164,0.0005358054648108238,-0.0005183894651930636,-0.0004546389144916941,0.0,-0.0098066499999988,9.80665
131,130.932,0.9932126696832579,-0.0006258781803807727,0.0006171547097840042,-0.7068392135311196,-0.7073737015071326,0.0005362252612892342,-0.0005075252970288486,-0.00044789083767682466,0.0,-0.0098066499999988,9.80665
132,131.041,0.9841628959276018,-0.0006273187416777715,0.0006175436631098833,-0.7068355340247476,-0.7073773766005698,0.0005309067976971485,-0.0004970737989799737,-0.00044180674197536656,0.0,-0.0098066499999988,9.80665
133,131.132,0.9909297052154195,-0.00062853903499342,0.0006178092557368499,-0.7068323104184968,-0.7073805963950984,0.0005193193937884643,-0.0004906716369857479,-0.0004386732699848445,0.0,-0.0098066499999988,9.80665
134,131.246,0.9841269841269841,-0.0006300677540921442,0.0006181419761706321,-0.7068282720546221,-0.7073846299838485,0.000504803305375388,-0.00048265134613583924,-0.0004347478215571576,0.0,-0.0098066499999988,9.80665
135,131.332,0.9885057471264368,-0.000630954842964598,0.0006185903643788558,-0.7068251999635004,-0.7073876984380922,0.0005215530400164425,-0.0004993627080693842,-0.00044952284467096126,0.0,-0.0098066499999988,9.80665
136,131.441,0.9885057471264368,-0.0006320669836519612,0.0006191677129619821,-0.7068213050935689,-0.7073915886969077,0.0005440513451909108,-0.0005215861300197285,-0.00046906184898801785,0.0,-0.0098066499999988,9.80665
137,131.532,0.9953917050691244,-0.000634303328330054,0.0006186269385507992,-0.7068179886143842,-0.7073949009484279,0.0005476228359501338,-0.0005233208078287284,-0.00047120923685321786,0.0,-0.0098066499999988,9.80665
138,131.64,0.9654377880184332,-0.0006395596455127542,0.0006159501565092013,-0.7068139236457753,-0.7073989601474648,0.0005215958587681764,-0.0004919158541431812,-0.0004455743041423292,0.0,-0.0098066499999988,9.80665
139,131.732,0.9931818181818182,-0.0006440372490387597,0.0006136699347700617,-0.7068104608947382,-0.7074024179836813,0.000499424730057612,-0.0004651634861888164,-0.00042373713924045303,0.0,-0.0098066499999988,9.80665
140,131.848,0.9954545454545455,-0.0006469658063217037,0.0006133331935704887,-0.7068064876559309,-0.7074063854854471,0.0005189128330886299,-0.0004947700675195458,-0.0004555594499118245,0.0,-0.0098066499999988,9.80665
141,131.932,0.9795918367346939,-0.0006487010859558452,0.0006134493856262223,-0.7068036662037965,-0.7074092028484059,0.0005397542922600442,-0.0005251932454418837,-0.0004870223513071236,0.0,-0.0098066499999988,9.80665
142,132.043,0.9749430523917996,-0.0005822169737739936,0.0006074765561553008,-0.706797055702045,-0.7074158548676205,-0.0028615860940215186,0.0033293448190489933,-0.0006378924841673591,0.0,-0.0098066499999988,9.80665
143,132.132,1.0,-0.0004417028167924683,0.0005949195053673986,-0.7067881009172232,-0.7074249024354559,-0.009936490091458463,0.011358317034695488,-0.0008974416630207719,0.0,-0.0098066499999988,9.80665
144,132.238,1.0,-0.0002743488770167251,0.0005799639167885493,-0.7067774356678849,-0.7074356781904058,-0.018362780245708903,0.02092091315670108,-0.0012065676513180836,0.0,-0.0098066499999988,9.80665
145,132.332,0.7562642369020501,0.0011510939119867198,-6.465026144031804e-06,-0.7067571754540446,-0.7074520429974951,-0.01330352109486652,0.01890942036926045,-0.0010982440414288776,0.003308267469879329,-0.003190115060240118,10.00183778072288
146,132.439,0.7651162790697674,0.0029467254705352907,-0.0007516665749941762,-0.7067326494512836,-0.7074715937144997,-0.005846395336343204,0.015198017736097,-0.0009231125060693602,0.007522370080320669,0.00523809016064259,10.250469834738919
147,132.532,0.7253521126760564,0.0037087011671219504,-0.0011150075307528888,-0.7067120298642939,-0.707490510550089,-3.3468423611619997e-05,0.008004284690160218,-0.0008012945432145441,0.008439188844621519,0.00843918884462281,10.546602766334662
148,132.645,0.6807511737089202,0.00302631903433086,-0.000983927302425222,-0.7066883801969519,-0.7075173698451118,0.005683513440329542,-0.008725993921499395,-0.0007144884267576931,0.0040242428286848654,0.004024242828686221,11.067566396215186
149,132.732,0.7180722891566265,0.0025009451798811465,-0.0008830071266331366,-0.7066701720459896,-0.7075380491253506,0.010085083547965125,-0.021606827896846384,-0.0006476553990431344,0.0006251250996013053,0.0006251250996027122,11.468662288247046
150,132.848,0.7063106796116505,0.0012695024806517454,-0.0004560083748201322,-0.7066611787587357,-0.7075492545858888,0.011194122807374134,-0.02202564791317933,-0.0021214650977139623,0.0,1.4087738870805833e-15,11.503511772222215
151,132.947,0.6674757281553398,0.00014602848260443675,-5.16540425316679e-05,-0.7066555905435642,-0.7075565829366609,0.011490682358040474,-0.020095079612459835,-0.003592704919615961,0.0,1.4040557975141038e-15,11.464985647222221
152,133.052,0.5833333333333334,-0.000807561595245651,0.0002551975208561591,-0.7066633001134877,-0.707549124728189,0.01017813002991115,-0.01659262560368091,-0.0033211193879271244,0.0,1.3939754738622932e-15,11.382673558064523
153,133.132,0.5587467362924282,-0.0013493066738883642,0.0003942422009510742,-0.7066797635606751,-0.7075316147790104,0.007914566134492911,-0.01279429107483789,-0.0016915517391619872,0.0,1.3823532004433957e-15,11.287770493548376
154,133.252,0.5333333333333333,-0.002147327342632161,0.0005956861181369422,-0.7067040477183254,-0.7075057691801874,0.004618789718682958,-0.007227996468128157,0.0006425622764851029,0.0,1.3649841527056984e-15,11.145941455577669
155,133.332,0.5868263473053892,-0.0023971334368725916,0.000592268739102918,-0.7067122909028926,-0.7074966457299064,0.004346614369595663,-0.006053805670355872,6.738077525412004e-05,0.0,1.354649127099735e-15,11.061549567131472
156,133.446,0.6118012422360248,-0.00275310712116529,0.0005873989739794325,-0.7067240374409008,-0.7074836448132561,0.003958764497146176,-0.0043805837835299705,-0.0007522528640002246,0.0,1.3399217156112335e-15,10.941291126095614
157,133.532,0.5901639344262295,-0.00300033594054469,0.0005828631451124067,-0.7067330778780181,-0.7074736540303111,0.0036892416932048947,-0.0036256483130742917,-0.0009021361277723194,0.0,1.3276413483239459e-15,10.841014317338692
158,133.652,0.5408163265306123,-0.0032975442385266398,0.0005746019987233772,-0.7067460936138052,-0.7074593031316427,0.0033648539289472144,-0.0037091607969599607,-6.150165216019872e-05,0.0,1.3078834835118295e-15,10.679679107661318
159,133.732,0.4463667820069204,-0.00349568310384801,0.0005690945677973556,-0.7067547707709967,-0.7074497358658637,0.0031485954194420177,-0.003764835786217093,0.0004989213315814143,0.0,1.2947115736370805e-15,10.572122301209696
160,133.852,0.33458646616541354,-0.0036494271547491694,0.0005093051248039681,-0.7067667189967483,-0.7074370663629923,0.002209902363700513,-0.0029529792518012948,0.0023179383444131597,0.0,1.2797812015439614e-15,10.450206561067198
161,133.932,0.39814814814814814,-0.0037382599270564918,0.0004645380393222525,-0.7067745828129601,-0.7074287801606777,0.0015256017273506805,-0.002326468322352582,0.003623795642226441,0.0,1.2702873813598848e-15,10.372683636166023
162,134.052,0.4212962962962963,-0.00379523176686945,0.0003954917419656483,-0.7067859744623145,-0.7074171478177717,0.0005743699683432649,-0.0009696505730972561,0.004030256137822739,0.0,1.2581885794182002e-15,10.273889420967745
163,134.132,0.37305699481865284,-0.0037667148181797583,0.0003478082424315852,-0.7067932166247363,-0.7074100877086352,5.7911712510335354e-06,0.00029847782570884755,0.0029479204339064014,0.0,1.2519900335947883e-15,10.2232744532258
164,134.253,0.3894736842105263,-0.0037159329810904558,0.0002751679964915061,-0.7068444262168212,-0.7073591066399736,-0.0008304461080115181,0.002141007971949872,0.0013570615678327352,0.0,1.2427619485001866e-15,10.147921420000001
165,134.332,0.48633879781420764,-0.003566903249559975,0.00021988108496327877,-0.7074876198306779,-0.7067153528554335,-0.001016854878980674,0.0022001626659184717,0.0010178024605847756,0.0,1.238966888819803e-15,10.116932405999998
166,134.441,0.4918032786885246,-0.003361279949093872,0.00014359914374078916,-0.7083750641839739,-0.7058271356084098,-0.0012740517908241885,0.0022817811677232477,0.000549710780964181,0.0,1.2337306672354763e-15,10.074175411999995
167,134.532,0.41081081081081083,-0.0031903876925400533,8.500931402723855e-05,-0.7088420910275022,-0.7053599622585416,-0.0013726896168663883,0.002425388406962216,0.00012262749671925155,0.0,1.2290324794286215e-15,10.03581179719999
168,134.651,0.43243243243243246,-0.002968612028023615,1.9561857496659994e-05,-0.7088524175625801,-0.7053505375595179,-0.0012471808711997953,0.0027786294221878644,-0.0005154273918598104,0.0,1.2221725487658528e-15,9.979796212399991
169,134.743,0.43523316062176165,-0.002797155211758834,-3.1036176123610846e-05,-0.7088604011023043,-0.7053432512375837,-0.0011501488997600925,0.0030517233163118497,-0.0010087135242065662,0.0,1.2168690729593434e-15,9.936490045999998
170,134.852,0.46632124352331605,-0.0025591405572207193,-0.00011966244478212238,-0.7088638549419165,-0.705340618311861,-0.0011424487056210634,0.0034183814339340188,-0.0004268765272571856,0.0,1.2045903735377478e-15,9.836226856399987
171,134.932,0.45,-0.0023832202885235923,-0.00018572119518746774,-0.7088661779815962,-0.705338897596503,-0.0011405819999054075,0.003689009170979253,4.13127234205452e-05,0.0,1.1953669373525143e-15,9.760911784400003
172,135.052,0.5276381909547738,-0.002108903104306201,-0.00027487557454517543,-0.708862788529036,-0.7053431490150134,-0.001491138453893504,0.003981891907236202,0.0003200847001676371,0.0,1.1810929407304725e-15,9.644355756719369
173,135.212,0.5409836065573771,-0.001726138770847773,-0.0003775597531326801,-0.708847067165196,-0.7053599520036967,-0.0025343873019038517,0.00418815813892383,1.6131296132038228e-06,0.0,1.1613457947475923e-15,9.483108072924914
174,135.255,0.5792349726775956,-0.001626362058341292,-0.0004044814794599038,-0.7088433295127966,-0.7053639647334075,-0.0027707479409873905,0.004208475824445556,-5.715123377744831e-05,0.0,1.1560328251208975e-15,9.439724383600009
175,135.332,0.6363636363636364,-0.0015016623634914676,-0.00044091129204278307,-0.7088451472910037,-0.7053623670068763,-0.0024255710393190884,0.0036317514367402437,0.00030596309341484967,0.0,1.1464154713485846e-15,9.361192730400012
176,135.437,0.5906976744186047,-0.0013316173250598553,-0.0004905883092012646,-0.7088476260794677,-0.7053601882888791,-0.0019548752643167655,0.0028453090898692083,0.0008011189941317171,0.0,1.133300898022701e-15,9.254104112399991
177,135.532,0.6320346320346321,-0.0011505368917575772,-0.0006114060684913854,-0.7088459749429463,-0.7053620246689251,-0.0015894598942249863,0.0023724832488223923,0.0009137953235767419,0.0,1.1220310119338667e-15,9.162078508799993
178,135.64,0.6254980079681275,-0.0008807670582680238,-0.0009268302920705609,-0.7088349588833406,-0.7053730488927397,-0.0013159234579653014,0.0023952311640605293,0.0002548804203980793,0.0,1.1106170096546409e-15,9.068876107200015
179,135.732,0.6454183266932271,-0.0006509631260360977,-0.0011955250010455124,-0.7088255748325654,-0.7053824398982115,-0.0010829109381884474,0.002414609017781912,-0.00030641746008765376,0.0,1.1008939706760373e-15,8.989481468800005
180,135.845,0.6590038314176245,-0.0006170215319582746,-0.001184282339520439,-0.7088334158589779,-0.7053746502818778,-0.0009971800212937613,-9.632560765847342e-05,0.0003504120012878205,0.0,1.0835939416469763e-15,8.848216011354591
181,135.932,0.6475095785440613,-0.0006295327924786868,-0.0011225179296242415,-0.7088424666697245,-0.7053656457234623,-0.000962371908015101,-0.002423979670357946,0.0010656164884862436,0.0,1.0694406982476973e-15,8.732646008565764
182,136.046,0.6428571428571429,-0.0006969755044795267,-0.0009930779500445781,-0.7088448555420853,-0.7053633484814259,-0.001068497466389037,-0.004154538653791007,0.0009666770938786536,0.0,1.0563620678441984e-15,8.625850886800006
183,136.132,0.6944444444444444,-0.0008091198573681375,-0.0008372137442869777,-0.7088352911905462,-0.7053730191911298,-0.0013306647259741884,-0.003876473046839252,-0.00035145131871097213,0.0,1.0530570032111553e-15,8.598862986
184,136.252,0.691699604743083,-0.000965600349770833,-0.0006197288060205825,-0.7088219455837476,-0.7053865132046702,-0.001696479506790638,-0.0034884745255112652,-0.0021907002665102478,0.0,1.0484452851185376e-15,8.56120545
185,136.332,0.6694560669456067,-0.0010620420939760752,-0.0005456427446287015,-0.7088279109335868,-0.7053804190825882,-0.00017199444259174013,-0.0033787249299477105,-0.001545503101569817,0.0,1.0534613774214173e-15,8.602164952008025
186,136.446,0.694560669456067,-0.001199471579468578,-0.00044007010714524616,-0.7088364115571075,-0.7053717349586215,0.0020003967738922036,-0.0032223317562696074,-0.0006260971415294853,0.0,1.0606093089530226e-15,8.660532242369474
187,136.532,0.680327868852459,-0.0012985874720529993,-0.00035702487713196976,-0.7088390737355484,-0.705368938096159,0.0027444101637228743,-0.003224793365225211,-0.00080440297257167,0.0,1.0677808739964404e-15,8.719092515000007
188,136.635,0.6893617021276596,-0.0014076086309129407,-0.00025033328135610057,-0.7088342925434173,-0.7053735659408777,0.0017341127619148662,-0.0034836704283952367,-0.002870645709335525,0.0,1.0801508470052821e-15,8.820101009999988
189,136.722,0.6893617021276596,-0.001499694464124772,-0.00016021513735120483,-0.7088302540607434,-0.7053774748970967,0.0008807547623291257,-0.003702333578839908,-0.004615918700583351,0.0,1.0905992708088709e-15,8.905418865000005
190,136.848,0.7446808510638298,-0.0015857362537718908,-6.923302309256298e-05,-0.7088395538038036,-0.7053679582210931,0.0006425434679898698,-0.003324939808121804,-0.004814829170867121,0.0,1.1056850588797275e-15,9.028603672908373
191,136.932,0.7088607594936709,-0.0016336651919206097,-1.6457872931865256e-05,-0.7088487729371223,-0.705358588617398,0.0006825875428753746,-0.002935005324072785,-0.004483291395082853,0.0,1.1157330004410799e-15,9.110651342231055
192,137.052,0.7307692307692307,-0.001689109650653465,5.9005265724776704e-05,-0.70885470074557,-0.705352501790119,0.0007143873652548869,-0.002421017839886332,-0.003526679905667068,0.0,1.1287253937420281e-15,9.216742284615373
193,137.132,0.7603686635944701,-0.0017139155337610483,0.00010937942069445575,-0.7088518930613278,-0.7053552556713996,0.0007118749812147334,-0.0021185505105868656,-0.0024381518903138985,0.0,1.1361159676084042e-15,9.277090900000001
194,137.252,0.695852534562212,-0.001749381992946991,0.00018377396826861668,-0.708847693405325,-0.7053593788594468,0.0006795903844757502,-0.0016740852668881317,-0.0008481770767830405,0.0,1.1471264445545295e-15,9.366998267200007
195,137.332,0.7454545454545455,-0.0017277247967100666,0.00020303652642913512,-0.7088452022640304,-0.705361929170766,-8.334921766070991e-05,-0.0016179046109318744,-0.0009014413147233414,0.0,1.152506782329249e-15,9.410932059199999
196,137.436,0.7863636363636364,-0.0016995704416020553,0.0002280778520378173,-0.7088419637803473,-0.705365244575481,-0.0010751707004384335,-0.0015448697581887164,-0.0009706848240457551,0.0,1.1595012214363865e-15,9.468045988800007
197,137.532,0.7468354430379747,-0.001700097833655369,0.0002543647195358021,-0.7088434147460851,-0.7053637751793906,-0.0010787584916685704,-0.001686579720117239,-0.0009230109644122,0.0,1.1653235155283163e-15,9.515588628000007
198,137.64,0.7021276595744681,-0.0017576403452222473,0.00029074960190639054,-0.708854583711746,-0.7053523933989223,0.0008758030752649788,-0.0022951506497337917,-0.0006297109560109912,0.0,1.17051169838251e-15,9.557953355999997
199,137.732,0.7489361702127659,-0.0018066580402607171,0.0003217441313331994,-0.7088640980158274,-0.705342697808153,0.0025407999656163896,-0.0028135629231110446,-0.0003798628007061664,0.0,1.1749312615546026e-15,9.594041828000002
200,137.852,0.7860262008733624,-0.0018178905023518107,0.0003525104222748214,-0.708873852791403,-0.7053328510644582,0.0023139719813301506,-0.0019378127256996901,0.0010975183957086254,0.0,1.1787773011118599e-15,9.625447124285715
201,137.972,0.834061135371179,-0.001820424301803819,0.0003816821204559978,-0.7088831693323515,-0.705323466403713,0.0016912646572656309,-0.0008059170717201573,0.002764951719009272,0.0,1.182306677203149e-15,9.65426666714286
202,138.046,0.7956521739130434,-0.0018258285032786577,0.0003817332693049541,-0.7088837269965252,-0.7053228920249358,0.0018004513546531994,-0.0003555296475122822,0.0027205050393355103,0.0,1.1841782461369605e-15,9.669549187254901
203,138.132,0.8739130434782608,-0.0018339979601147403,0.0003729728531450904,-0.7088818244642814,-0.7053247875680687,0.0021698374082060753,4.614529487516198e-05,0.0021414227345409997,0.0,1.1862034082895606e-15,9.686085891176472
204,138.24,0.8114035087719298,-0.0018442572780019123,0.0003619714002931697,-0.7088794352377426,-0.7053271680175843,0.0026337175684817285,0.0005505742922918968,0.0014142030959619272,0.0,1.1887466351788719e-15,9.706852914705884
205,138.332,0.9035087719298246,-0.0018138727919271248,0.0003590452626927864,-0.7088684451224864,-0.7053382918757328,0.0021744074959618633,0.0007516419224437266,0.0006935311574212076,0.0,1.190145241765156e-15,9.718273404166666
206,138.44,0.8744588744588745,-0.0017732238960589124,0.0003564306869677951,-0.708854403804308,-0.7053525081725327,0.001526450757713396,0.0009585749715961987,-0.00016535550059325593,0.0,1.191689343805095e-15,9.730881954166666
207,138.532,0.9315068493150684,-0.0017474890959255744,0.0003333943561636202,-0.7088484932108446,-0.7053585226238823,0.0010551163504714837,0.0009226563051924691,-0.0005764416710007767,0.0,1.1928617175761599e-15,9.740455112500001
208,138.632,0.863013698630137,-0.0017385352199865286,0.0002638473248725259,-0.7088550098271783,-0.7053520222248671,0.0007152491178261988,0.00042976108506401927,-0.0003376489668528634,0.0,1.1938302403610678e-15,9.748363701209678
209,138.732,0.920704845814978,-0.0017295813440474828,0.0001943002935814316,-0.708861526443512,-0.7053455218258521,0.00037538188518091407,-6.313413506443062e-05,-9.885626270495016e-05,0.0,1.1947987631459755e-15,9.756272289919355
210,138.836,0.8678414096916299,-0.0017145305507538036,0.00013789754428278009,-0.7088645151696128,-0.7053425666994716,0.0008986551431472548,-0.00019899826214846394,-0.0008308859875953989,0.0,1.1953796838840949e-15,9.761015867729085
211,138.932,0.8590308370044053,-0.0016996024024679714,8.870609161613497e-05,-0.708866590646936,-0.7053405252555566,0.0015398145224749917,-0.00025645695418949945,-0.0016834371430108268,0.0,1.195839018355471e-15,9.764766618326693
212,139.052,0.8841201716738197,-0.0016777559365229791,6.372587690481522e-05,-0.7088697100162615,-0.7053374472017768,0.0017682729816311377,-0.00038048855859381314,-0.0024201235702133992,0.0,1.1966659895029838e-15,9.771519350200803
213,139.132,0.7688888888888888,-0.001660413842816528,7.890084756261832e-05,-0.7088722473078847,-0.7053349363848433,0.0014210482105522662,-0.0005086911701967682,-0.002624425147828407,0.0,1.1974376960111195e-15,9.777820812048194
214,139.235,0.8755555555555555,-0.001638085897169474,9.843862228453839e-05,-0.7088755140708493,-0.7053317037080417,0.0009739963177882514,-0.0006737520326355609,-0.0028874634290077107,0.0,1.1984312681403438e-15,9.785933944176708
215,139.332,0.8590308370044053,-0.0016678339712120512,5.598334393337628e-05,-0.7088702321855663,-0.7053369426670512,0.0015990204461645888,-0.0005366981156593423,-0.002049251567141977,0.0,1.1985663167792674e-15,9.7870367
216,139.435,0.8238095238095238,-0.0017085164153740288,2.349761368160698e-09,-0.7088631265365826,-0.7053439892966079,0.002450059141603836,-0.0003387775671931726,-0.0009646930405313144,0.0,1.1985663167792674e-15,9.7870367
217,139.532,0.8666666666666667,-0.001734106915313817,-6.030519557590562e-05,-0.7088580356335179,-0.7053490414669301,0.002474922666325994,-0.00012666144873943995,-0.0003627709075808801,0.0,1.198720040715688e-15,9.7882919512
218,139.641,0.8714285714285714,-0.0017338245809498684,-0.0001453924127460508,-0.708855968872093,-0.7053511031616506,0.0007302423371003497,0.00017041396873535028,-0.0006438138002995174,0.0,1.1992436628741207e-15,9.792567650599999
219,139.732,0.8153153153153153,-0.001733588870609324,-0.00021642852983307185,-0.7088542434107199,-0.7053528243930227,-0.0007263256441801679,0.00041843106038868226,-0.0008784459400922043,0.0,1.1996808153183169e-15,9.7961372712
220,139.852,0.8936170212765957,-0.0017233079583887465,-0.00028387766222299826,-0.7088582146633328,-0.7053488334245518,-0.0012407308242407319,0.00017047181188306718,-0.0004881028926100737,0.0,1.1997672850325534e-15,9.79684335
221,139.926,0.831858407079646,-0.001715883082637858,-0.00032261741115143666,-0.708861343378011,-0.7053456910132321,-0.001404904055382932,-4.5011526354222326e-05,-0.00017124229231404303,0.0,1.1997672850325534e-15,9.79684335
222,140.041,0.8849557522123894,-0.001696520123431329,-0.00036140297265831574,-0.708866786569248,-0.7053402507504273,-0.0015750023605027405,-0.00029165420632074794,4.2263844441917486e-05,0.0,1.1997672850325534e-15,9.79684335
223,140.142,0.7615062761506276,-0.0016675705905490014,-0.0003627720581965868,-0.7088724540074662,-0.7053346228464562,-0.0015945858544710856,-0.0003735875194628829,-0.0001959820821569568,0.0,1.1997672850325534e-15,9.79684335
224,140.237,0.8151260504201681,-0.001640340831897307,-0.0003640598119207031,-0.7088777847661865,-0.7053293292734141,-0.0016130059725601232,-0.00045065350707182146,-0.00042007478539352115,0.0,1.1997672850325534e-15,9.79684335
225,140.327,0.8613445378151261,-0.00159324658816666,-0.0003517851215192214,-0.7088759333320779,-0.7053313011461078,-0.0015319672087768478,-0.00032986247730647185,-0.0016264780106613863,0.0,1.1997672850325534e-15,9.79684335
226,140.441,0.8127659574468085,-0.0015290393212792901,-0.00033335130770278997,-0.7088721122499426,-0.7053352930061927,-0.0014082558722381066,-0.00013541563574867024,-0.0033671808874153213,0.0,1.1997672850325534e-15,9.79684335
227,140.532,0.8008658008658008,-0.0014917236507297033,-0.0003210366944364574,-0.7088679782516304,-0.7053395358569747,-0.0012014032836304303,-0.0002141758291982951,-0.0033413632297884127,0.0,1.200084340651421e-15,9.7994323056
228,140.652,0.8181818181818182,-0.0014748188672150074,-0.00031036030812038595,-0.7088600148371567,-0.705347579145786,-0.0006780878902646148,-0.0008603186956606353,-2.704170439415607e-05,0.0,1.2012372701745752e-15,9.8088466896
229,140.732,0.8025751072961373,-0.0014635490115385394,-0.0003032427172430024,-0.7088547058941742,-0.7053529413383268,-0.0003292109613539473,-0.0012910806066356818,0.002182505979202801,0.0,1.2020058898566781e-15,9.815122945599999
230,140.84,0.8875,-0.0014620289123324056,-0.0002853999694872836,-0.7088466622634306,-0.7053610350572004,-0.00014206561940791865,-0.000977514723299109,0.0023201236476290336,0.0,1.2017338107381328e-15,9.812901250996015
231,140.932,0.8125,-0.0014629132700413126,-0.0002688902563897787,-0.7088396707887811,-0.7053680657305212,-2.7814767772412e-05,-0.0005679602548758795,0.0019845650573094504,0.0,1.201293615203064e-15,9.809306781673307
232,141.032,0.8373015873015873,-0.0014570277888277393,-0.00025625293128666345,-0.7088343857782268,-0.7053733937762136,-0.00010678125730173563,-0.00028390561818101407,0.0007641219907245188,0.0,1.2009682532858392e-15,9.80665
233,141.132,0.7944664031620553,-0.0014365929859794307,-0.0002548951385266137,-0.7088340189067991,-0.7053738045920386,-0.0006174461672171241,-0.0003422166669874322,-0.0022746951962333353,0.0,1.2009682532858392e-15,9.80665
234,141.252,0.8898678414096917,-0.0014120712225614582,-0.0002532657872145538,-0.7088335786610859,-0.7053742975710284,-0.0012302440591156483,-0.0004121899255551405,-0.005921275820583105,0.0,1.2009682532858392e-15,9.80665
235,141.332,0.8325991189427313,-0.001370561715209708,-0.00023768654646537846,-0.7088425961357557,-0.7053653198505875,-0.00012445138767383642,-0.0005423528910614296,-0.0039637164119634945,0.0,1.2009682532858392e-15,9.80665
236,141.439,0.8,-0.0013150427491267313,-0.00021684931196335236,-0.7088546570081267,-0.7053533121494977,0.0013545463103798719,-0.0007164458574261248,-0.0013454807029342616,0.0,1.2009682532858392e-15,9.80665
237,141.532,0.7735042735042735,-0.0012703899679964942,-0.00019527615906268883,-0.7088608114919708,-0.7053472167729887,0.0022062111459672444,-0.0008624416869133728,-1.118837390102367e-06,0.0,1.2011123694762335e-15,9.807826797999999
238,141.638,0.8516949152542372,-0.0012281170122092925,-0.00016240025619828117,-0.7088574662116175,-0.7053506602831171,0.0021385587900877028,-0.001016115166246885,-0.000697949300287263,0.0,1.2016215800156266e-15,9.811984817599999
239,141.732,0.7947598253275109,-0.0011906296740583782,-0.00013324615365814638,-0.7088544996422476,-0.7053537139619103,0.0020785651914775436,-0.0011523916479199978,-0.0013158932956866248,0.0,1.202073144078862e-15,9.815672117999998
240,141.852,0.8777292576419214,-0.0011862492738650774,-9.71389593667637e-05,-0.70886558158704,-0.7053425896907116,0.002165790875460882,-0.001668775111874695,-4.1532450804500874e-05,0.0,1.202169221539125e-15,9.81645665
241,141.932,0.8212765957446808,-0.0011891257772254893,-7.321560436602718e-05,-0.7088749520908518,-0.705333170498639,0.0022457830990067233,-0.002058685886157854,0.0010831381817648195,0.0,1.202169221539125e-15,9.81645665
242,142.034,0.8893617021276595,-0.001190685170794972,-4.004567934330119e-05,-0.7088798771833578,-0.7053282209141296,0.0019490841152445327,-0.0020885733797786875,0.001748845842152608,0.0,1.2020197034031738e-15,9.815235741767067
243,142.132,0.8354430379746836,-0.001187544418860696,-2.3063615678925572e-06,-0.7088691565219558,-0.7053390007511812,0.0007867026942253916,-0.0010891051469257814,0.0006979143082904064,0.0,1.2015470331669408e-15,9.81137609638554
244,142.239,0.8734177215189873,-0.001184115230524293,3.889881192157841e-05,-0.7088574513100171,-0.705350770573268,-0.0004824280409687978,2.1509848624422755e-06,-0.0004495313460283661,0.0,1.2010309544396251e-15,9.8071619937751
245,142.332,0.8326359832635983,-0.0011904837248426765,5.662273863233414e-05,-0.7088650514572674,-0.7053431204563806,-0.0006656729662790836,-0.0002892668172716252,-0.0003509830846451696,0.0,1.2013525631268906e-15,9.809788128
246,142.431,0.8870292887029289,-0.0011988803166304823,7.236088084800188e-05,-0.7088762165235745,-0.7053318838384818,-0.0007016241622623063,-0.000813967216759931,-5.651062086689605e-05,0.0,1.2018281465551917e-15,9.8136715614
247,142.532,0.9146341463414634,-0.0012117253757898147,7.658515765435523e-05,-0.7088847067091993,-0.7053233285092776,-0.0007020928710699071,-0.001203914331272245,0.00013742860639467784,0.0,1.2020251053487306e-15,9.815279852
248,142.641,0.8888888888888888,-0.0012365165574539645,5.0924109981071866e-05,-0.7088864613034511,-0.7053215236703809,-0.0006101169555913813,-0.0012534978063777006,7.476052700077326e-05,0.0,1.201501483190298e-15,9.8110041526
249,142.732,0.9279661016949152,-0.001257213782513031,2.9500666510710263e-05,-0.7088879261481933,-0.7053200168782745,-0.0005333297234028664,-0.0012948931846767618,2.2441304754471873e-05,0.0,1.2010643307461021e-15,9.807434532
250,142.83,0.902542372881356,-0.001298878878219993,2.264762341612082e-05,-0.7088861978426148,-0.7053216768813093,3.897553993273081e-05,-0.0010754386420293927,-0.00011312403535891898,0.0,1.2009682532858392e-15,9.80665
251,142.932,0.8666666666666667,-0.0013474155194191215,1.9843154365061714e-05,-0.7088835167471436,-0.7053242807139475,0.0007653057034456838,-0.000776562390045396,-0.0002753649868311186,0.0,1.2009682532858392e-15,9.80665
252,143.05,0.8516949152542372,-0.0013859635938598693,6.01989043080367e-06,-0.7088792962299664,-0.7053284494937596,0.0013069973081453916,-0.00024400583869357384,-0.00024349895067554684,0.0,1.2009682532858392e-15,9.80665
253,143.132,0.9279661016949152,-0.0013961157082316232,-1.3584042925547645e-05,-0.7088753059128444,-0.7053324394356337,0.0014012505610783894,0.0003026155366872748,-1.3855211104133369e-05,0.0,1.2009682532858392e-15,9.80665
254,143.235,0.9324894514767933,-0.0014088677543327307,-3.820849579999291e-05,-0.7088702936852399,-0.7053374511918903,0.0015196418422015645,0.000989225313080403,0.00027459973006488376,0.0,1.2009682532858392e-15,9.80665
255,143.332,0.8553191489361702,-0.001418262004824509,-2.5706232724670428e-05,-0.7088690377819461,-0.70533869485049,0.0014183491432897396,0.0006141700570558489,0.000493516683827187,0.0,1.2009682532858392e-15,9.80665
256,143.432,0.948936170212766,-0.0014273739346416755,-4.9981162729241725e-06,-0.7088685019789123,-0.7053392154449003,0.0012673078839813285,3.6960574294460456e-06,0.0007076515410801971,0.0,1.2009682532858392e-15,9.80665
257,143.524,0.8868778280542986,-0.0014418589595085384,6.563320738294459e-06,-0.7088687900707952,-0.7053388963619028,0.001312137014759929,-0.0004916091778700738,0.0009823086457401624,0.0,1.2009682532858392e-15,9.80665
258,143.652,0.8823529411764706,-0.0014874814613131534,-8.613936113132205e-06,-0.7088724508484021,-0.7053351215131209,0.002141619308750575,-0.0009038703287969864,0.0016885572893873342,0.0,1.2009682532858392e-15,9.80665
259,143.732,0.8695652173913043,-0.0015159955249410453,-1.8099721645276394e-05,-0.7088747388344064,-0.7053327622326322,0.0026600457424948666,-0.0011615335481263752,0.0021299626916669342,0.0,1.2009682532858392e-15,9.80665
260,143.835,0.8826086956521739,-0.0015184538763715468,-3.664713129777449e-05,-0.7088807011069169,-0.7053267639073489,0.0027808918897062546,-0.0007345272286328963,0.001755378113593862,0.0,1.2009682532858392e-15,9.80665
261,143.932,0.8135593220338984,-0.001513937884019548,-5.537738385133702e-05,-0.7088869176379636,-0.7053205245396336,0.0027856850586831564,-0.00018107884330681857,0.0012145736785606222,0.0,1.2009682532858392e-15,9.80665
262,144.041,0.9462809917355371,-0.0015218848893670748,-7.378628543773591e-05,-0.7088895123557587,-0.7053178977532183,0.002624831779859973,0.00012284842226654953,0.0005139536252245557,0.0,1.2009682532858392e-15,9.80665
263,144.132,0.9043478260869565,-0.001546550008018524,-8.550179247863643e-05,-0.7088855987726204,-0.7053217756923019,0.0022603580504655637,-6.371749052778915e-05,-0.00019961825478825922,0.0,1.2009682532858392e-15,9.80665
264,144.243,0.9434782608695652,-0.0015766360318680889,-9.979213623182023e-05,-0.7088808250613198,-0.7053265059256896,0.0018157802047208153,-0.00029128690063952387,-0.0010700191194191182,0.0,1.2009682532858392e-15,9.80665
265,144.332,0.9233870967741935,-0.001597810107332225,-9.3078350864836e-05,-0.7088743828217157,-0.7053329332195297,0.0014138758257031731,-0.0004920920799486197,-0.0022715043872593944,0.0,1.2009682532858392e-15,9.80665
266,144.44,0.9251101321585903,-0.001623199008961955,-8.304886736045971e-05,-0.7088662944188777,-0.7053410055489204,0.0009214643947780236,-0.0007376655819825782,-0.0037816540617495458,0.0,1.2009682532858392e-15,9.80665
267,144.531,0.9823788546255506,-0.0016318682182406643,-7.533432799277164e-05,-0.7088617057433495,-0.7053455984268785,0.0004454519934951873,-0.0008780629818793399,-0.003884070224128523,0.0,1.2011171733492466e-15,9.8078660246
268,144.651,0.868421052631579,-0.0016108266592556075,-6.704037668640251e-05,-0.7088613375431067,-0.7053460174611447,-0.0003382273428142754,-0.0008934217297937736,-0.0010328861763698356,0.0,1.2016936381108238e-15,9.8125732166
269,144.729,0.847457627118644,-0.0015971496459153205,-6.164930833726257e-05,-0.7088610982129488,-0.7053462898334177,-0.0008476189114154261,-0.0009034049159381555,0.0008203834546733112,0.0,1.202068340205849e-15,9.8156328914
270,144.835,0.9785407725321889,-0.0016072507653481032,-5.081850179845527e-05,-0.7088728671547904,-0.7053344393171457,-0.0003467057435772716,-0.0004981184349162122,0.0006885460508055396,0.0,1.2017608923330077e-15,9.813122388999998
271,144.932,0.9098712446351931,-0.0016229800482745812,-4.011499108270804e-05,-0.7088863711260581,-0.7053208321032037,0.0003814299507065703,-3.254780662251841e-05,-3.130191843947754e-05,0.0,1.201294916650733e-15,9.8093174088
272,145.052,0.8921161825726142,-0.001638725883936607,-4.420099079490426e-05,-0.7088898865521032,-0.7053172623050596,0.0008575765450623483,0.00027414487478936924,-0.0004967747758288568,0.0,1.2009682532858392e-15,9.80665
273,145.132,0.9591836734693877,-0.0016459860714102908,-6.20309781185278e-05,-0.7088807307436997,-0.7053264458122456,0.000804808780449965,0.00024385760076826214,-0.00043652426445833683,0.0,1.2009682532858392e-15,9.80665
274,145.231,0.951417004048583,-0.001654970553408972,-8.409558743150612e-05,-0.7088694004308005,-0.7053378104023883,0.0007395086717421577,0.00020637709916715197,-0.0003619642566373378,0.0,1.2009682532858392e-15,9.80665
275,145.322,0.8674698795180723,-0.0016420850440350145,-7.686167554075206e-05,-0.7088685562256356,-0.7053386894351914,0.00045208368646127063,3.390054174871876e-05,-0.0013069930612537107,0.0,1.2009682532858392e-15,9.80665
276,145.425,0.9020408163265307,-0.0016215992589635048,-6.0994512787703134e-05,-0.7088702717424542,-0.7053370142653241,6.329080236484603e-05,-0.00019984162042469526,-0.002659517341753658,0.0,1.2009682532858392e-15,9.80665
277,145.528,0.8471074380165289,-0.0016107551022223297,-4.413505602988468e-05,-0.7088709715871101,-0.7053363373609878,-0.0002706211074255254,-0.0005231507471762141,-0.0033297752197832815,0.0,1.2009682532858392e-15,9.80665
278,145.64,0.9322033898305084,-0.0016270458104173564,-2.291226614339733e-05,-0.7088687743148058,-0.7053385088791781,-0.00047386228805405405,-0.001135584840085283,-0.002071415623650108,0.0,1.2009682532858392e-15,9.80665
279,145.727,0.8389830508474576,-0.0016397001998188535,-6.426706142282535e-06,-0.7088670675050693,-0.7053401956834867,-0.0006317371337208967,-0.0016113148943986955,-0.0010939398659392755,0.0,1.2009682532858392e-15,9.80665
280,145.827,0.8553719008264463,-0.0016597589347095642,-1.7606659844862835e-05,-0.7088735290791804,-0.705333653881659,-0.00015158294832059115,-0.0011918473239849016,0.00033840244477567594,0.0,1.2009682532858392e-15,9.80665
281,145.932,0.9140271493212669,-0.001682549827801373,-3.87951214773062e-05,-0.7088829556241898,-0.7053241251472061,0.0005600868883590213,-0.0004483446613641963,0.0019392149620931119,0.0,1.2009682532858392e-15,9.80665
282,146.052,0.9049773755656109,-0.0016920415709888756,-5.266803900619758e-05,-0.7088850078730206,-0.7053220396752092,0.0013125450451573844,-8.320075247190577e-05,0.0022330916000775428,0.0,1.2009682532858392e-15,9.80665
283,146.127,0.9039301310043668,-0.001685745791556657,-5.3699290102614974e-05,-0.7088798489210937,-0.705327239586635,0.0017378640981398586,-0.00021290935814314842,0.0012824972281637057,0.0,1.2009682532858392e-15,9.80665
284,146.232,0.8497854077253219,-0.0016769317003515539,-5.514304163759885e-05,-0.7088726263883959,-0.705334519462631,0.0023333107723151293,-0.00039450140608282905,-4.833489251523373e-05,0.0,1.2009682532858392e-15,9.80665
285,146.332,0.9606986899563319,-0.0016976481393228054,-5.724673639723141e-05,-0.7088701418966291,-0.7053369660067853,0.0028318691272288254,-0.0004388444162905207,-0.0004423422189429273,0.0,1.2009682532858392e-15,9.80665
286,146.43,0.8805309734513275,-0.0017242126240963281,-5.946511518572284e-05,-0.7088686523643875,-0.7053383984386193,0.0033057132083922957,-0.0004546354967169476,-0.0006405707355588812,0.0,1.2009682532858392e-15,9.80665
287,146.523,0.9013452914798207,-0.0017519913414196758,-6.780364446756619e-05,-0.7088677965272094,-0.7053391891561698,0.0036081856340169968,-0.0005326264114119001,-0.0005984779936261783,0.0,1.2009682532858392e-15,9.80665
288,146.652,0.8475336322869955,-0.0018013707766002065,-0.0001056846234919668,-0.7088689637776704,-0.7053378854258282,0.003406341956928393,-0.0009067913126200054,0.0004317526845260402,0.0,1.2009682532858392e-15,9.80665
289,146.732,0.8958333333333334,-0.0018319936821385272,-0.00012917670350710432,-0.7088696876539253,-0.7053370769108878,0.003281167583540083,-0.0011388315614312865,0.0010706554306670968,0.0,1.2009682532858392e-15,9.80665
290,146.833,0.8884120171673819,-0.0018395014861129465,-0.00012668228054916192,-0.708883777153614,-0.7053228975170596,0.0023632608961677926,-0.0011187082780821948,0.002570008135500843,0.0,1.2009682532858392e-15,9.80665
291,146.93,0.8111587982832618,-0.0018402233183074635,-0.00011758982665457387,-0.7089000528508494,-0.7053065390187131,0.0013234414024819881,-0.0010341753032006495,0.00415426307446904,0.0,1.2009682532858392e-15,9.80665
292,147.022,0.944206008583691,-0.0018362342883209968,-0.00011462830411443935,-0.7089147106168388,-0.7052918173597028,0.0005615630943793808,-0.0008803186744141594,0.005334365220429985,0.0,1.201068333973613e-15,9.807467220833333
293,147.121,0.8669527896995708,-0.00181493806178426,-0.00013204183257402167,-0.7089276495716387,-0.7052788629136555,0.0005579174529494979,-0.00044668935394529474,0.005430974421047043,0.0,1.201540142930261e-15,9.811319833333334
294,147.239,0.8820960698689956,-0.0017895546806596702,-0.00015279735134402422,-0.7089430717601882,-0.7052634222607911,0.0005535721429623657,7.016175530030712e-05,0.005546124781378458,0.0,1.2021025010806092e-15,9.81591183611111
295,147.332,0.8733624454148472,-0.0017753593422101606,-0.0001669440787161865,-0.7089392442813839,-0.7052673021206118,0.0012947338894010317,0.00010522112133912534,0.00396137044206246,0.0,1.2017897155710866e-15,9.8133577486
296,147.437,0.9224137931034483,-0.0017604948632210667,-0.00018247372252108205,-0.708931725178235,-0.7052748937557642,0.0022805075049402764,7.031599525361413e-05,0.0018368931524450302,0.0,1.2012853089047066e-15,9.809238955599998
297,147.532,0.9137931034482759,-0.0017510281670793252,-0.00019556171030535638,-0.7089272023827663,-0.7052794604213674,0.002885980436956847,-0.00010814420754600221,0.0009255149769062283,0.0,1.2009682532858392e-15,9.80665
298,147.632,0.8739130434782608,-0.001750602962428973,-0.00020703239096959148,-0.7089279040997979,-0.705278752768437,0.0028371659619548088,-0.0006478677862751417,0.002387609974707746,0.0,1.2009682532858392e-15,9.80665
299,147.732,0.9251101321585903,-0.0017501777577786212,-0.00021850307163382657,-0.7089286058168295,-0.7052780451155066,0.0027883514869527708,-0.0011875913650042814,0.003849704972509264,0.0,1.2009682532858392e-15,9.80665
300,147.838,0.9295154185022027,-0.0017516104419145555,-0.0002115151464315215,-0.7089337194264139,-0.7052729034292169,0.0014794241297287271,-0.001021665888342262,0.004180301690748969,0.0,1.2009682532858392e-15,9.80665
301,147.932,0.935064935064935,-0.0017533183650210685,-0.0002008713530368442,-0.7089392690429941,-0.7052673238548283,2.6689745966751357e-05,-0.0007031125738858098,0.004190301297415719,0.0,1.2009682532858392e-15,9.80665
302,148.052,0.8607594936708861,-0.0017362374731079574,-0.00019860969608705555,-0.7089314711942738,-0.7052752035992285,-0.0012614983558545366,-0.00018040606245287244,0.0036040581434088263,0.0,1.2009682532858392e-15,9.80665
303,148.132,0.9155555555555556,-0.0017091558850092577,-0.00020633065133951727,-0.7089141461749832,-0.705292681107239,-0.0016588066654353714,0.0002626182609603897,0.0027251482849902273,0.0,1.2009682532858392e-15,9.80665
304,148.252,0.9244444444444444,-0.0016685335028612128,-0.00021791208421820848,-0.7088881586460472,-0.7053188973692547,-0.002254769129806553,0.0009271547460802043,0.001406783497362485,0.0,1.2009682532858392e-15,9.80665
305,148.332,0.8596491228070176,-0.0016369105404679058,-0.0002195764548042825,-0.7089002210173153,-0.7053068454168249,-0.0019471165434229198,0.000723391870900719,0.0019940995783301976,0.0,1.2009682532858392e-15,9.80665
306,148.43,0.9519650655021834,-0.0015981019914916518,-0.00022152139337708275,-0.7089154531126686,-0.7052916238815663,-0.0015593107694378296,0.0004637530536379515,0.0027362975594868453,0.0,1.2009682532858392e-15,9.80665
307,148.519,0.809322033898305,-0.0015641076266198534,-0.0002206359020884149,-0.7089271675253661,-0.7052799270793343,-0.0012710585818068696,0.00021298645680442504,0.003421894042756392,0.0,1.2009682532858392e-15,9.80665
308,148.636,0.9152542372881356,-0.001526378832475726,-0.00020470720721858449,-0.7089307703373319,-0.7052763920725076,-0.0012481151584416172,-0.00020003419305870843,0.004387544393240115,0.0,1.2009682532858392e-15,9.80665
309,148.732,0.8626609442060086,-0.0014954218731779768,-0.00019163750886385026,-0.7089337264907397,-0.7052734915540857,-0.0012292897854239717,-0.0005389229314079873,0.005179872885944805,0.0,1.2009682532858392e-15,9.80665
310,148.852,0.7896995708154506,-0.001452435560054432,-0.0001396241063136219,-0.7089237542330232,-0.7052836136467938,-0.0015080258087255035,-0.0008743503179866792,0.003708279520273223,0.0,1.2009682532858392e-15,9.80665
311,148.93,0.8185654008438819,-0.001423969873277427,-0.00010145299809018887,-0.7089156010476756,-0.7052918740426788,-0.0017261646850965976,-0.0010815952809061905,0.002450696811079946,0.0,1.2009682532858392e-15,9.80665
312,149.042,0.9559471365638766,-0.0013927613662114873,-5.7470678036037164e-05,-0.7089089780252463,-0.7052986014454357,-0.0017151062558145574,-0.0010669597204722866,0.0012516374792532672,0.0,1.2009682532858392e-15,9.80665
313,149.132,0.8153153153153153,-0.0013811328542984631,-3.719472267880392e-05,-0.7089107307572409,-0.7052968636210607,-0.0012549631683938915,-0.000620731781978928,0.0011323619953011643,0.0,1.2009682532858392e-15,9.80665
314,149.238,0.954954954954955,-0.0013674370513786804,-1.3314153035842443e-05,-0.7089127950860344,-0.7052948168501303,-0.0007130168654318225,-9.517443219790827e-05,0.0009918819808687,0.0,1.2009682532858392e-15,9.80665
315,149.332,0.8666666666666667,-0.0013494732862804548,-1.0699339806271163e-05,-0.7089178475177434,-0.7052897728068999,0.00039022621000165086,-0.0003113374067469862,0.0008701828867197243,0.0,1.2009682532858392e-15,9.80665
316,149.435,0.9008620689655172,-0.0013286738712412877,-1.1393591054469183e-05,-0.7089240014902998,-0.7052836266488447,0.0017184952346141445,-0.000679016776382897,0.0007373835318721925,0.0,1.2009682532858392e-15,9.80665
317,149.532,0.8232758620689655,-0.0013265415477218968,-9.310350620565488e-06,-0.7089232320822138,-0.7052844035472939,0.002669786829613603,-0.0010639428601499324,0.0006429222889289436,0.0,1.2008235583155639e-15,9.805468475903615
318,149.641,0.8034188034188035,-0.0013679520758380164,-1.0042919110890264e-07,-0.70890589208022,-0.7053017522952439,0.002986874871786234,-0.0015935230239043107,0.0006135751413327338,0.0,1.2002978332568967e-15,9.801175605020081
319,149.732,0.8717948717948718,-0.0014025241681184556,7.5885877821092186e-06,-0.7088914155647941,-0.7053162361123398,0.003251599751031346,-0.002035649582635149,0.0005890743116881851,0.0,1.1998589251803945e-15,9.797591648594377
320,149.846,0.8127659574468085,-0.001433024772088769,2.1873029354992248e-05,-0.7088839459292782,-0.7053236816912057,0.0030041387584060467,-0.001776650594547395,0.0012255595542956068,0.0,1.200223652968802e-15,9.800569877
321,149.953,0.8851063829787233,-0.0014592479435465823,3.615363503325798e-05,-0.7088789371282188,-0.7053286616797841,0.0026631655525416196,-0.0013809633255004949,0.0019482046663761017,0.0,1.2007376673812083e-15,9.8047671232
322,150.052,0.8958333333333334,-0.001472232770590941,4.608867171795089e-05,-0.708874129607489,-0.705333466293748,0.0023754845038056697,-0.0013518659439868865,0.0017120077423752704,0.0,1.2009682532858392e-15,9.80665
323,150.129,0.9194915254237288,-0.001474076484776463,5.1416443141502053e-05,-0.7088702636308392,-0.7053373473963067,0.002172082049772181,-0.0015759316980838364,0.0008659526221455693,0.0,1.2009682532858392e-15,9.80665
324,150.237,0.8686440677966102,-0.0014766624735042082,5.8889161501808046e-05,-0.7088648412220316,-0.7053427910206747,0.0018867902960628537,-0.0018902057427912658,-0.0003207220919429158,0.0,1.2009682532858392e-15,9.80665
325,150.325,0.9279661016949152,-0.0014876939948409173,5.905787621249695e-05,-0.7088622616535787,-0.7053453600838735,0.0014557221229189003,-0.001616298262029955,-0.0015335723422465397,0.0,1.2009682532858392e-15,9.80665
326,150.427,0.895397489539749,-0.001502437544283109,5.795521347906633e-05,-0.7088596749010387,-0.7053479285654303,0.0009125226270408092,-0.0011825960418209958,-0.0029933054335413607,0.0,1.2009682532858392e-15,9.80665
327,150.524,0.9790794979079498,-0.0015198936386770306,5.89637079782581e-05,-0.7088576756568142,-0.705349900137064,0.00044496046401008827,-0.0009289650131476956,-0.0038055460093046195,0.0,1.2009682532858392e-15,9.80665
328,150.629,0.8874458874458875,-0.0015507535669775684,6.721974613900074e-05,-0.7088571160496497,-0.7053503939267067,0.00010952539023098833,-0.0012075148571089247,-0.002678934946671246,0.0,1.2009682532858392e-15,9.80665
329,150.728,0.9134199134199135,-0.0015798500708037978,7.500401069056027e-05,-0.7088565884200374,-0.7053508594997984,-0.0002067419650465369,-0.0014701475671295853,-0.001616701659045198,0.0,1.2009682532858392e-15,9.80665
330,150.835,0.8839285714285714,-0.0016371113177716238,9.622613825420582e-05,-0.7088617252097739,-0.7053455601592638,-0.0003573687669510643,-0.0016798588912934065,-7.25882127881048e-05,0.0,1.2009682532858392e-15,9.80665
331,150.932,0.9330357142857143,-0.001695787610058893,0.00011882250226998112,-0.7088678779313967,-0.7053392350501837,-0.00044379918871120425,-0.0018505354030394089,0.0014310313966571268,0.0,1.2009682532858392e-15,9.80665
332,151.027,0.9,-0.0017413829475939487,0.00013980675311610507,-0.7088729866732444,-0.7053339892991812,-0.0005825201956925014,-0.001774794047597524,0.0020080945121658815,0.0,1.2009682532858392e-15,9.80665
333,151.132,0.8649789029535865,-0.0017569574024603718,0.00015963781480264348,-0.708875943083855,-0.7053309748032752,-0.0008944492402811987,-0.0009786096571226318,1.90634895714018e-05,0.0,1.2009682532858392e-15,9.80665
334,151.252,0.9422222222222222,-0.0017741999739109419,0.0001814849239999534,-0.708879511944787,-0.7053273401584547,-0.0012409495624835852,-7.788374750089221e-05,-0.002207536769815609,0.0,1.2009682532858392e-15,9.80665
335,151.332,0.9244444444444444,-0.001763794003652825,0.00016391585226918897,-0.7088893686860503,-0.7053174631339764,-0.0010790092081195313,0.00016076860840864084,-0.001859866891546113,0.0,1.2009682532858392e-15,9.80665
336,151.429,0.9227467811158798,-0.0017511767647148545,0.00014261335279563105,-0.708901319984832,-0.7053054872417965,-0.0008826565284530596,0.0004501345899490323,-0.0014383171641442287,0.0,1.2009682532858392e-15,9.80665
337,151.532,0.8245614035087719,-0.0017398047287002895,0.00011722206878883862,-0.7089086311648931,-0.7052981719011012,-0.00024165230779899156,0.0004211681894957553,-0.001206855336669848,0.0,1.2009682532858392e-15,9.80665
338,151.641,0.9035087719298246,-0.0017327490434336451,8.354064879040022e-05,-0.7089031464006589,-0.70530370622257,0.0014997383789157178,-0.00043590064160515076,-0.001493212622590327,0.0,1.2009682532858392e-15,9.80665
339,151.741,0.8461538461538461,-0.0017262759376844275,5.264026347071939e-05,-0.708898114506866,-0.7053087835817158,0.0030973445135170185,-0.0012222023215145588,-0.0017559257289394973,0.0,1.2009682532858392e-15,9.80665
340,151.842,0.8846153846153846,-0.0017469694190363491,3.769109942588484e-05,-0.7089037365934932,-0.7053030822422914,0.002855868346523473,-0.0012691542195777084,-0.0021675686419864075,0.0,1.2009682532858392e-15,9.80665
341,151.947,0.9437229437229437,-0.001771593409721163,2.400749306488358e-05,-0.7089108042196544,-0.7052959179245928,0.0023929028306156814,-0.001232602369661136,-0.002612228183230966,0.0,1.2009682532858392e-15,9.80665
342,152.033,0.8571428571428571,-0.0017809849844234807,4.681692975356273e-06,-0.7089147699886592,-0.705291908353322,0.0021124441275158705,-0.0009483637256871817,-0.0024372374522501922,0.0,1.2009682532858392e-15,9.80665
343,152.132,0.9319148936170213,-0.0017787997952188313,-2.7355926666868177e-05,-0.7089171367889422,-0.7052895338124002,0.0019086594491874737,-0.00031447691256362043,-0.00158554457011636,0.0,1.2009682532858392e-15,9.80665
344,152.235,0.8851063829787233,-0.001776526315541267,-6.06879955875631e-05,-0.7089195992175195,-0.7052870633304311,0.001696641046482193,0.00034502148896890924,-0.0006994398543610455,0.0,1.2009682532858392e-15,9.80665
345,152.324,0.8771186440677966,-0.0017594629682056615,-6.374968622872902e-05,-0.7089188813582743,-0.7052878271923808,0.0011557101358193383,0.0001597379278391302,-0.0014043456953951093,0.0,1.2009682532858392e-15,9.80665
346,152.429,0.9319148936170213,-0.0017354277699643751,-6.070597143919349e-05,-0.7089172986308179,-0.7052894778875122,0.00042503093881534454,-0.00025412016874178204,-0.0026162372492253465,0.0,1.2009682532858392e-15,9.80665
347,152.531,0.8434782608695652,-0.0017251097202187762,-6.256201942806423e-05,-0.708915174212667,-0.7052916385759926,1.8269377760592702e-05,-0.000551745961420239,-0.003240463109686963,0.0,1.2009682532858392e-15,9.80665
348,152.639,0.8260869565217391,-0.0017472973447931178,-7.675741955416766e-05,-0.7089114333831025,-0.7052953421956837,0.00035766154713930343,-0.0006015605423599509,-0.0024960353430360195,0.0,1.2009682532858392e-15,9.80665
349,152.732,0.9570815450643777,-0.0017664033548432422,-8.898123632942153e-05,-0.7089082121131997,-0.705298531423751,0.0006499159152153708,-0.000644456431502474,-0.0018550003217533606,0.0,1.2009682532858392e-15,9.80665
350,152.841,0.8291666666666667,-0.0017920416676051219,-0.00013393978306792424,-0.7089044303424088,-0.7053022579943805,0.0007272773107565337,-0.0005387143446353302,-0.0009757930821491801,0.0,1.2009682532858392e-15,9.80665
351,152.932,0.8875,-0.001814018101240374,-0.00017687278209342394,-0.7089012719731684,-0.7053053671690411,0.0007451269748020654,-0.0004229362952346326,-0.00021923617450636426,0.0,1.2009682532858392e-15,9.80665
352,153.043,0.7966101694915254,-0.001830773080997915,-0.00021830967800209026,-0.7089016463952672,-0.70530493827505,0.0004971923255360563,-0.0003184460955671914,0.0003195626470260082,0.0,1.2009682532858392e-15,9.80665
353,153.132,0.905982905982906,-0.0018293286161688341,-0.0002353518764266576,-0.708908203530987,-0.7052983456563803,-0.0001008362378926048,-0.000289040520321573,0.00018310589622703985,0.0,1.2009682532858392e-15,9.80665
354,153.249,0.8974358974358975,-0.0018274297129665593,-0.00025775566536681766,-0.7089168235858099,-0.7052896789554324,-0.0008870086190291054,-0.00025038375286385266,3.718931693576829e-06,0.0,1.2009682532858392e-15,9.80665
355,153.332,0.8728813559322034,-0.0014266037625667682,-0.0001246613597890079,-0.708916233599929,-0.7052909536001771,-0.010792074138299005,0.0056531913941728325,0.00015539040137082873,0.0,1.2009682532858392e-15,9.80665
356,153.452,0.8458333333333333,-0.0008100732999663186,8.157207475805914e-05,-0.7089147591933256,-0.7052934843949159,-0.025978948613629694,0.01473307316098419,0.00040052513871343304,0.0,1.2009682532858392e-15,9.80665
357,153.523,0.7130434782608696,0.00033461749031419674,0.00038198767855490907,-0.7089118983100545,-0.7052898096306212,-0.038475763898685796,0.022594958899981574,0.0004768011990871425,0.0,1.201059163233299e-15,9.807392336055777
358,153.633,0.6205357142857143,0.005415040378747085,0.0016038432594798894,-0.7088990342515423,-0.7052621854926401,-0.07272534274248056,0.04533178699147523,0.00030341229528608516,0.0,1.201585483981751e-15,9.811690071115537
359,153.732,0.5892857142857143,0.009987420978335633,0.0027035132823121197,-0.7088874565988813,-0.705237323768457,-0.10354996370188876,0.0657949322738148,0.0001473622818651694,0.0,1.2020591726553577e-15,9.815558032669323
360,153.841,0.5341880341880342,0.017278116238203876,0.004330073357933936,-0.7088609646733129,-0.7050685844126174,-0.11121437207881714,0.07160132387316388,0.000723317034316369,0.0,1.2029988060353707e-15,9.823230721485945
361,153.934,0.5889830508474576,0.024013506084935445,0.005812754170408538,-0.7088352251196759,-0.7048923565501335,-0.11175845754912582,0.0727393059845431,0.0013853567787988719,0.0,1.203895914851078e-15,9.830556170883535
362,154.052,0.5968379446640316,0.0312803203188149,0.007426787512060446,-0.7087990589843073,-0.7046622435435647,-0.10115994095802265,0.0655049889087674,0.0012988822925835545,0.0,1.2050323298549584e-15,9.8398357036
363,154.131,0.5877551020408164,0.034896489298180296,0.008246473459222655,-0.7087714216937739,-0.7045018268366371,-0.08304253637790461,0.05218877729773361,0.0003364253398029768,0.0,1.205791341791035e-15,9.846033506400001
364,154.23,0.5975103734439834,0.03942814409510562,0.009273674836045973,-0.7087367876208271,-0.7043007983051708,-0.06033844709396383,0.035501372873783264,-0.0008696916010230713,0.0,1.2067425086476375e-15,9.8538003732
365,154.332,0.6556016597510373,0.04231559619852234,0.010056344617140861,-0.7087120492860137,-0.704150398392361,-0.047951297670602536,0.02762706229090676,-0.0017656379807740714,0.0,1.2073477966472936e-15,9.8587429248
366,154.441,0.6226415094339622,0.04481542612590026,0.01080208805226453,-0.708689212114796,-0.7040083270609944,-0.038332567825912385,0.02227644903957786,-0.0026090665571392524,0.0,1.2078714188057261e-15,9.8630186242
367,154.532,0.6475409836065574,0.04670738226581741,0.011339490405595568,-0.7086720738900826,-0.7038977639283647,-0.03129917100792837,0.018480232015492006,-0.002782881603530981,0.0,1.2084452491853286e-15,9.86770430483871
368,154.636,0.639344262295082,0.04836804056133533,0.011734602492892625,-0.708657444214613,-0.7037920980344012,-0.02582450902029418,0.015866634976719782,-0.0016178171649846203,0.0,1.2094525128816327e-15,9.875929237096774
369,154.732,0.6216216216216216,0.049900955911044466,0.01209932134270536,-0.7086439398987948,-0.7036945602861273,-0.020770974877861698,0.013454083864006523,-0.000542373067864707,0.0,1.2103822947551442e-15,9.883521482258063
370,154.823,0.6814516129032258,0.05020756738894033,0.01214297368181947,-0.7086674832916917,-0.7036491597908441,-0.009716203146839818,0.00669973144359638,0.000467552104964903,0.0,1.2109157154315812e-15,9.887877192629482
371,154.932,0.6895161290322581,0.05018799976017491,0.012093339143072104,-0.7087079465357874,-0.7036106564910484,0.005638906442785939,-0.002898006570113198,0.0016740352148189631,0.0,1.2114372514459563e-15,9.892135857370517
372,155.052,0.5882352941176471,0.049687764604740295,0.011929530463653009,-0.7087300275263422,-0.7036259716091942,0.014414216693490578,-0.008462526161223557,0.0017821225686929219,-0.0019221034000002587,1.2117769675654117e-15,9.89490985
373,155.128,0.6185185185185185,0.0489316588000593,0.01172560551903089,-0.7087233956709995,-0.7036886254651042,0.012511670123785734,-0.007396636996418238,0.0007308611529879281,-0.004903325,1.2117769675654117e-15,9.89490985
374,155.233,0.6122448979591837,0.0478870389383287,0.011443867108697625,-0.7087142332392762,-0.7037751867134013,0.009883151836692833,-0.005924026966094715,-0.0007215394871311911,-0.009022118000000714,1.2117769675654117e-15,9.89490985
375,155.325,0.6326530612244898,0.047552749158683974,0.011628310476009675,-0.713778474485338,-0.6985636179354968,0.00022694614848920228,-0.014214918815663863,0.16222260667875943,-0.00980665,1.2117769675654117e-15,9.89490985
376,155.434,0.6032388663967612,0.04734789793785543,0.011988779268789088,-0.7214478151152767,-0.6906489210857076,-0.013633517374743439,-0.027191049382386742,0.40932075300999693,-0.00980665,1.2117769675654117e-15,9.89490985
377,155.532,0.48292682926829267,0.047226242889932164,0.01201959617554696,-0.7339817354672877,-0.676600520056831,-0.020261137799767744,-0.03169760953206814,0.6109768417682931,-0.010878631983806212,1.2119082474959328e-15,9.895981831983805
378,155.645,0.3137254901960784,0.04727554500323023,0.011165885919369317,-0.7655308952028212,-0.6393818511316663,-0.010213533969716082,-0.01518378208621262,0.7813232968210794,-0.015365075101214844,1.212457678316262e-15,9.900468275101215
379,155.732,0.336734693877551,0.04731350326745086,0.010508604571692805,-0.7898209562381405,-0.6107267697468086,-0.002477768189057778,-0.002469596353564342,0.912474992304182,-0.0188192392712547,1.212880691425719e-15,9.903922439271254
380,155.828,0.5306122448979592,0.047992212933974564,0.007966703173211137,-0.8160614541512206,-0.5731181407478843,0.003402828834663394,0.007513031500310204,0.9647404710610076,-0.016643955776892407,1.2133415756085372e-15,9.907685844223108
381,155.892,0.3484848484848485,0.048556409673992926,0.005953396025340728,-0.8334564653815287,-0.5469949795117431,0.0068573636242626095,0.013458148583276389,0.9833641878637184,-0.014143455378486073,1.2136477985894547e-15,9.910186344621515
382,155.912,1.0,0.04873272115524878,0.005324237541630835,-0.8388924063910035,-0.538831491625444,0.007936905746013035,0.015315997671704476,0.9891840993645691,-0.01336204900398361,1.2137434932709915e-15,9.910967750996017
383,156.012,0.35802469135802467,0.049589068639450735,0.0021263981913964445,-0.8656928590999198,-0.49752457951301066,0.013102691136300974,0.023554931826889294,1.0165000309944165,-0.01015968940000057,1.2141789040719834e-15,9.91452315
384,156.092,0.43209876543209874,0.05007022636823611,-0.0008528751362123126,-0.8840654912405553,-0.4605197596926269,0.015359302125871945,0.02165022785216518,1.0239252247810389,-0.013297817400001062,1.2141789040719834e-15,9.91452315
385,156.13,1.0,0.05029877628940902,-0.002268029966825599,-0.8927924915073518,-0.4429424702779554,0.016431192345917493,0.020745493464171785,1.0274521918296822,-0.014788428200000375,1.2141789040719834e-15,9.91452315
386,156.212,0.3157894736842105,0.05079196296141392,-0.005321785127623861,-0.9116244394514988,-0.4050125299620709,0.0187442186102272,0.018793171890080028,1.0350630154609683,-0.018005009400000126,1.2141789040719834e-15,9.91452315
387,156.292,0.36666666666666664,0.05085751055487507,-0.0084345876102842,-0.9254742469850263,-0.37409442919742153,0.023767393529416685,0.01649896981567103,0.9373793065547535,-0.0196133,1.214366255119496e-15,9.916052987400002
388,156.31,1.0,0.0507739509813945,-0.009166552949789106,-0.9275206317056967,-0.36857759968663567,0.02555200666189356,0.015890643067657504,0.8905381739139131,-0.0196133,1.2144527248337325e-15,9.916759066200001
389,156.412,0.410958904109589,0.05030044673167129,-0.013314356540316912,-0.9391168117894951,-0.33731556579218236,0.03566481441259585,0.012443458162247527,0.6251050889491508,-0.0196133,1.2149427198810732e-15,9.920760179400002
390,156.492,0.4931506849315068,0.04992907084953553,-0.016567535827004615,-0.9482118549924723,-0.3127963235220287,0.04359642833471341,0.009739783726632499,0.4169222772121317,-0.0196133,1.2153270297221246e-15,9.9238983074
391,156.514,1.0,0.049791709291540864,-0.017200189692681434,-0.9498498148277513,-0.30817585990859175,0.04311373766631037,0.007880458196838976,0.377645860833793,-0.0196133,0.0004332255020101555,9.9243298
392,156.612,0.47191011235955055,0.04902287813957007,-0.018851415869788484,-0.9533011199820399,-0.29704780131529357,0.029097175565978583,-0.005372440794026283,0.2827526411138878,-0.0196133,0.0042928708835352925,9.9243298
393,156.706,0.5384615384615384,0.048285427850944945,-0.02043524506007498,-0.9566115555381945,-0.2863739491951903,0.0156527180411693,-0.018084405132204343,0.19173261403560302,-0.0196133,0.007994979718876073,9.9243298
394,156.812,0.7051282051282052,0.04669809723309726,-0.020890419065566667,-0.9590727800735026,-0.2784455826530754,0.004317778633929607,-0.031419231904199714,0.1264090435691615,-0.0196133,0.012169698192772433,9.92196675180723
395,156.932,0.7209302325581395,0.044245195854355074,-0.02025063637967325,-0.9607552283870292,-0.2730355984523575,-0.005193694943493388,-0.04564738843634688,0.0848453333938041,-0.0196133,0.016895794578313753,9.917240655421688
396,157.014,0.686046511627907,0.04252631049397603,-0.01972471953366591,-0.9618047159879316,-0.2696864351903294,-0.010831949664688032,-0.053755763369014976,0.059121121277668345,-0.0196133,0.019613300000001214,9.914015235856574
397,157.103,0.66,0.040414497492704,-0.01864274104566304,-0.962366647067589,-0.2680541591250507,-0.011990027346340333,-0.05325726017474652,0.0466263512691176,-0.0196133,0.019613300000001214,9.91053797749004
398,157.212,0.6063829787234043,0.037828119772045435,-0.017317621324401317,-0.9630548547943604,-0.2660550794495973,-0.013408347203644604,-0.05264673379075491,0.03132376777550179,-0.0196133,0.019613300000001214,9.906279312749005
399,157.301,0.574468085106383,0.03576914232183582,-0.016198258944637833,-0.9634668061737706,-0.26491974704341853,-0.013304456870210245,-0.051580555527564874,0.022876230390167635,-0.0196133,0.019613300000001214,9.898927031927713
400,157.412,0.5697674418604651,0.03325499682654236,-0.014764139141163396,-0.9638278916320402,-0.26400971652041905,-0.011890057074167886,-0.04967286901541025,0.016461086388393123,-0.0196133,0.01961330000000121,9.885812114457831
401,157.503,0.5697674418604651,0.03119939053733993,-0.01359066585543759,-0.9641207388025609,-0.2632732793758955,-0.01075737150497288,-0.048107309467289416,0.011265256928198865,-0.0196133,0.01953515936255175,9.875218409362551
402,157.634,0.42857142857142855,0.028595117016273024,-0.012045295319236128,-0.9643387358682263,-0.262829645813425,-0.01084794069592101,-0.045751073683400936,0.007849075558755466,-0.0196133,0.014416947609563791,9.870100197609563
403,157.714,0.43137254901960786,0.02700472097287314,-0.011101557587204554,-0.9644718638472586,-0.26255872455390095,-0.010903250125507665,-0.04431215106728561,0.005762857928560701,-0.0196133,0.011291322111555393,9.866974572111554
404,157.819,0.43137254901960786,0.025024436362581642,-0.010000110782410272,-0.9646075231524915,-0.2622993561866753,-0.010892273457415535,-0.04209914292040955,0.0033577012337584608,-0.022306109631146695,0.015192269262294597,9.860104280737707
405,157.913,0.37272727272727274,0.023305995018855517,-0.009083721082179206,-0.9647091322633589,-0.2621160130182953,-0.010840014161419916,-0.039953249323441326,0.001373595082664789,-0.026084081352459078,0.022748212704919363,9.852548337295081
406,158.037,0.3939393939393939,0.02118061287325166,-0.007958965745799296,-0.9648226224246594,-0.2619214819336929,-0.010154557992352693,-0.03723429191263268,-0.00045586569173123464,-0.02941995,0.029419950000001208,9.84274762996109
407,158.112,0.5308641975308642,0.020068353723844683,-0.007381643681050649,-0.964866106836185,-0.26186176918764165,-0.0089850842314936,-0.035726647360199704,-0.0005977021393018152,-0.02941995,0.029419950000001204,9.837023904280157
408,158.214,0.4383561643835616,0.018555681280650906,-0.0065964856729923416,-0.9649252456358599,-0.2617805598530119,-0.007394599916724932,-0.033676250768890456,-0.0007905997079978412,-0.02941995,0.0294199500000012,9.829239637354085
409,158.316,0.5205479452054794,0.01715966591005008,-0.0059007909428680574,-0.9649770637847416,-0.261701257072409,-0.006508867570524428,-0.031474458569862515,-0.0003279707484305399,-0.02941995,0.0294199500000012,9.82378209939759
410,158.426,0.47297297297297297,0.015732039443066167,-0.005210257637946834,-0.9650280588329592,-0.26161700728205683,-0.006024158698128952,-0.028998905022340933,0.0006085725905125627,-0.02941995,0.0294199500000012,9.81944984437751
411,158.517,0.5,0.014589222968459093,-0.004669978427648696,-0.9650660165108369,-0.2615578014072263,-0.0054502363456415326,-0.02691622156649862,0.0009509459603580656,-0.02941995,0.028831551000001735,9.81645665
412,158.619,0.5256410256410257,0.013525319651471808,-0.004240330815652212,-0.9650845447120523,-0.2615510222915972,-0.0038248147601263292,-0.02438457473367477,-0.0011209660116581093,-0.02941995,0.024830437800001583,9.81645665
413,158.716,0.38095238095238093,0.012513568457866204,-0.0038317443611065164,-0.96510216466811,-0.26154457548555776,-0.0022790707033127763,-0.021977028235793148,-0.0030913136713206467,-0.02941995,0.021025457600001254,9.81645665
414,158.812,0.40594059405940597,0.011627840144816534,-0.003527801704119145,-0.9651147907414821,-0.2615432321928821,-0.0020069182028237377,-0.02072706626495345,-0.0027764947953982794,-0.03171838359375009,0.021911733593751287,9.814158216406248
415,158.919,0.45544554455445546,0.010717924584099404,-0.0032561958941600528,-0.9651256453711716,-0.2615451035094085,-0.002544639045481752,-0.02009141571761574,-0.0009109820293815292,-0.035817256835937554,0.026010606835938754,9.810059343164061
416,159.017,0.5,0.009894333664643028,-0.003010876666464856,-0.9651339950427977,-0.26155167740398666,-0.0027964885642581504,-0.019583629263255728,0.00046065412386373867,-0.03886927267206531,0.029062622672066506,9.80665
417,159.115,0.6323529411764706,0.009167551877679352,-0.002799587417088951,-0.9651266020796799,-0.2616063110860255,-0.0006686514554551624,-0.019811557937669862,-0.0014999124828561233,-0.034978375101214355,0.025171725101215556,9.80665
418,159.212,0.45588235294117646,0.008448186231399226,-0.0025904541804618515,-0.9651192845549614,-0.26166038728151286,0.0014374730297878934,-0.020037160809283777,-0.0034404733078741007,-0.03112718056680197,0.02132053056680317,9.80665
419,159.317,0.4782608695652174,0.007186523772517639,-0.002244640487921703,-0.9651051923362453,-0.26174869803032846,0.0013770079528911006,-0.02605355742573851,-0.003837628427892832,-0.02941995,0.026909447600002592,9.804217950799998
420,159.412,0.5652173913043478,0.0057419592740911825,-0.0018568180893292546,-0.9650885698375764,-0.26184728171702104,-0.00014622187847288708,-0.035118989266456194,-0.003128049688413655,-0.02941995,0.03808902860000246,9.800491423799999
421,159.531,0.5172413793103449,0.0037230735467754785,-0.0013271818778623251,-0.9650649373216834,-0.26197462838612,-0.0015206196056453984,-0.04499149050219513,-0.0024994059548111313,-0.02941995,0.04698527489959873,9.794795374899596
422,159.612,0.5625,0.0018390973099145637,-0.0008599411820563401,-0.965042008201309,-0.262070701951651,-0.0011568545007584444,-0.0481003969608541,-0.002705010454578091,-0.02941995,0.040605044779117555,9.788415144779115
423,159.712,0.5555555555555556,-0.00048679927880280246,-0.00028310081686371957,-0.9650137006452912,-0.2621893112918127,-0.0007077617786757486,-0.05193855308265562,-0.00295884317033979,-0.02941995,0.0327282174698809,9.78053831746988
424,159.812,0.6,-0.0029524726052444668,0.00035678125328666776,-0.9649718033319054,-0.26232164801113433,-0.0007580619150461839,-0.05402067122587661,-0.0031679863095343164,-0.02941995,0.029419950000001197,9.774963971513943
425,159.911,0.5454545454545454,-0.005493694659706162,0.0010354588836342263,-0.9649205825414573,-0.2624625024740467,-0.0011658720682334635,-0.05482307061612375,-0.003343000213997779,-0.02941995,0.029419950000001197,9.771096009960159
426,160.024,0.23076923076923078,-0.008379160398549598,0.0017980416199109557,-0.9648581987182532,-0.2626258079658128,-0.0014634205449837933,-0.055508886024355865,-0.003380686242133335,-0.02941995,0.028674644600000982,9.7674234
427,160.118,0.5,-0.010717228496609664,0.0023827302972313034,-0.9647901726925548,-0.2627720763720231,-0.0010198137459810845,-0.0551325953155756,-0.0027450048588216268,-0.02941995,0.024987344200001215,9.7674234
428,160.219,0.6363636363636364,-0.01322940804878072,0.0030109596207351158,-0.9647170808989853,-0.2629292371063554,-0.000543172398116446,-0.05472828295826913,-0.0020619855001568817,-0.02941995,0.02102545760000125,9.7674234
429,160.321,0.5454545454545454,-0.01588879313509799,0.003665712027795251,-0.9646257569811927,-0.26310067746014576,0.00029881548139256797,-0.05492649104193863,-0.002466778359951019,-0.026841308964143377,0.017034658964144574,9.762266117928288
430,160.421,0.5,-0.01856145184856731,0.004318483366933134,-0.9645268609246589,-0.26327556028788146,0.0013171426237159434,-0.055445156828222014,-0.0034489682152035487,-0.022934277091633714,0.013127627091634909,9.754452054183268
431,160.532,0.5,-0.021551334779051207,0.005046387158757437,-0.9644108422050928,-0.2634712788269768,0.0020720511214852204,-0.056137985940421894,-0.004411289877738973,-0.020641416532258518,0.010834766532259711,9.7478101
432,160.613,0.45454545454545453,-0.02378856420008097,0.005585498714069399,-0.9643112836361503,-0.2636179141722505,0.0017272728357291183,-0.05692294819821277,-0.004808377690478088,-0.023844394959677558,0.01403774495967875,9.7478101
433,160.717,0.4666666666666667,-0.026661056296218715,0.006277691328297288,-0.9641834553501006,-0.26380618671433037,0.0012845945429063505,-0.05793080097364823,-0.005318218832760544,-0.027956861088710504,0.018150211088711697,9.7478101
434,160.814,0.4166666666666667,-0.029385566931552014,0.006957197777255548,-0.9640453413312923,-0.26399785499450973,0.0011712831784466149,-0.05896887757691996,-0.005874643624053317,-0.02941995,0.019613300000001194,9.7478101
435,160.914,0.4,-0.032223177484719125,0.0076792738023395484,-0.9638909469182756,-0.26420566616569086,0.001244916430539844,-0.060101400237964335,-0.00649970862453421,-0.02941995,0.019613300000001194,9.7478101
436,161.012,0.25,-0.035014466290148524,0.008395091934777051,-0.9637372215162276,-0.26440882363833623,0.0011861736336720961,-0.061221475824713885,-0.006983765542507047,-0.02906691059999943,0.019613300000001194,9.7481631394
437,161.117,0.5,-0.038115646109766504,0.009248747419423926,-0.9635468871474918,-0.2646212214917673,-0.00026371759735053786,-0.06252966403961187,-0.0061408379971980625,-0.02494811759999983,0.019613300000001194,9.7522819324
438,161.212,0.3333333333333333,-0.04092147547037349,0.010021102381723546,-0.9633746798614926,-0.264813390978205,-0.0015755239492282712,-0.06371326290071015,-0.005378189265727963,-0.021221590599999875,0.019613300000001194,9.7560084594
439,161.333,0.0,-0.044649155766981655,0.011054563539922185,-0.9631222411565931,-0.2650757644292253,-0.002053509121760712,-0.06473045885562904,-0.004683804959058697,-0.0196133,0.016475172000000704,9.760754878
440,161.416,0.09090909090909091,-0.04726027705969309,0.01178094739461822,-0.9629374440784512,-0.2652619304685605,-0.001962040183600026,-0.06525582769513137,-0.004304867245256843,-0.0196133,0.013219364200000767,9.7640106858
441,161.532,0.21428571428571427,-0.051040363631735544,0.01283203181367888,-0.9626609678149841,-0.265527887626396,-0.0017855195463634338,-0.0668794204592714,-0.004236012902111088,-0.0196133,0.009806650000001195,9.768560971400001
442,161.612,0.6428571428571429,-0.05391795841407245,0.013631187988949712,-0.9624326276714219,-0.2657232511055213,-0.0015630545602179817,-0.06983915823698077,-0.005141793396324011,-0.0196133,0.009806650000001195,9.771699099400001
443,161.707,0.5555555555555556,-0.05733510221809816,0.014580185947084,-0.9621614737509417,-0.26595524523698255,-0.001298877389170208,-0.0733538468480113,-0.006217407733202059,-0.0196133,0.009806650000001197,9.7754256264
444,161.813,0.3888888888888889,-0.060565564204413135,0.015470246492534687,-0.9618772373005728,-0.2662253271259236,-0.0005377565460876044,-0.06755215627520467,-0.00679585262912181,-0.0196133,0.009806650000001199,9.786532800988143
445,161.916,0.5217391304347826,-0.06327076476452215,0.01620935002088479,-0.961614688810814,-0.2664961276677526,0.0005492427544631683,-0.054671079627138616,-0.006894768870954688,-0.0196133,0.0098066500000012,9.802502523517786
446,162.036,0.4375,-0.06609495166838524,0.016963064995408318,-0.9613164548279789,-0.26685693186642073,0.0010389474593856599,-0.041156652017764014,-0.007287782164448934,-0.018422208906882478,0.009806650000001202,9.818838832186234
447,162.11,0.625,-0.06723065291463755,0.017229209343954263,-0.9611466922145887,-0.2671632483692259,-9.596712985350921e-05,-0.03558416115610077,-0.008044016841603148,-0.015484184210525543,0.009806650000001202,9.824714881578949
448,162.218,0.5217391304347826,-0.06888816284159972,0.017617636231021166,-0.960898930562614,-0.2676103048868333,-0.0017523289627965136,-0.02745133665529812,-0.009147710694746701,-0.011196256275303589,0.009806650000001204,9.833290737449394
449,162.317,0.6739130434782609,-0.07008998317073555,0.01791394419800053,-0.9606744655373516,-0.2680845242807971,-0.0021056158784776313,-0.023459091171621822,-0.009460726067423802,-0.00980665,0.009806650000001206,9.843601457200004
450,162.413,0.6511627906976745,-0.07108697967216561,0.018169587522811954,-0.96045820769139,-0.268578534231239,-0.0018303703609853267,-0.021424179300665324,-0.009393731281161288,-0.00980665,0.009806650000001207,9.854898718000003
451,162.509,0.6511627906976745,-0.07207584582507033,0.018421997975713582,-0.9602443444148905,-0.26906569148916876,-0.00156298147113734,-0.01952985846307648,-0.009202788168364071,-0.00980665,0.00980665000000121,9.8659587438247
452,162.616,0.6481481481481481,-0.07304209029359306,0.018649280882436326,-0.9600460101794813,-0.26949410039663474,-0.0013963072644212285,-0.019768986368618697,-0.0069177050729725634,-0.00980665,0.00980665000000121,9.874319792031875
453,162.715,0.6226415094339622,-0.07393609218502964,0.01885957067463767,-0.9598625046719532,-0.2698904787315798,-0.001242094680637219,-0.019990235552251132,-0.004803469311816706,-0.00980665,0.009806650000001211,9.882055715139442
454,162.825,0.66,-0.07495676960147782,0.019202918840066776,-0.9596967061857786,-0.2701732683123673,-0.0020298528414501205,-0.021146739013047755,-0.0036361615184650137,-0.00980665,0.007032657370519273,9.890651185258964
455,162.918,0.7368421052631579,-0.07583240370490646,0.019544145968078186,-0.9595742233025226,-0.27033914958274224,-0.003141279563315333,-0.02254742994696752,-0.0031981091998309107,-0.00980665,0.0033991177290843867,9.897918264541833
456,163.019,0.6842105263157895,-0.0765399273225511,0.019854744819466356,-0.9594615905168397,-0.27051925076710565,-0.0041982669330712895,-0.019191943890141235,-0.002734554355077763,-0.00980665,1.2130457324136413e-15,9.905270101209677
457,163.136,0.8285714285714286,-0.07560712006048895,0.019782759539840933,-0.9594778700311606,-0.2707275269083591,-0.004342557999470668,0.019800895434475545,-0.0022852412103900447,-0.00980665,1.2136123182428123e-15,9.909896625604839
458,163.229,0.7428571428571429,-0.07486565787782397,0.019725540471420708,-0.9594908101579285,-0.2708930797385863,-0.0044572508984035385,0.0507952036155897,-0.0019280948646125296,-0.00980665,1.2140626813377947e-15,9.913574119354841
459,163.321,0.7428571428571429,-0.07132054185904974,0.01885751766049579,-0.959708463407976,-0.2710815502152101,-0.0038589988760649044,0.07703195050359096,-0.0022607372906059873,-0.0071392411999995275,1.2141789040719834e-15,9.91452315
460,163.422,0.8,-0.06633920561085827,0.017590180652088797,-0.9600267825272691,-0.2712980276229358,-0.0029264566823839116,0.10412106506526769,-0.0028917039334774844,-0.0031773545999995633,1.2141789040719834e-15,9.91452315
461,163.524,0.5581395348837209,-0.060981041513680084,0.01621675532827183,-0.9603526508450786,-0.2715129684578603,-0.0022153648134113444,0.12656379096299103,-0.0033251680266779622,0.0,1.213977945240756e-15,9.912882196613545
462,163.612,0.7222222222222222,-0.055268454187604704,0.014720561984491157,-0.9606484259164453,-0.2716861618470825,-0.0023695261642500223,0.12957168308149794,-0.0030211126895628767,0.0,1.213135832043233e-15,9.906005820517928
463,163.732,0.7777777777777778,-0.04747856237931926,0.01268029833388093,-0.961051755559218,-0.2719223346505673,-0.0025797461881209693,0.13367335415218962,-0.002606491775314988,0.0,1.2119874958647924e-15,9.896628944023902
464,163.817,0.7567567567567568,-0.042058356642264864,0.011230263778271469,-0.9612673905941794,-0.27206510668701045,-0.002651503696723525,0.13224804832274595,-0.0024530018808836263,0.0,1.210561529815098e-15,9.884985047590359
465,163.914,0.8648648648648649,-0.03591185324802977,0.00957358658291593,-0.9614855501641892,-0.27221826458933335,-0.002702647594764948,0.12889573007941726,-0.0023337133438233078,0.0,1.2086901415328698e-15,9.869704002610442
466,164.041,0.7435897435897436,-0.028102377372702665,0.007459390776437039,-0.9617292761361288,-0.27240255921535167,-0.002388859236147151,0.1234346279501908,-0.0020933060413226264,0.0,1.2066080002032694e-15,9.8527020284
467,164.124,0.7083333333333334,-0.02336285764968859,0.0061616382002388954,-0.961824418039662,-0.2724981584040695,-0.001600983476499007,0.11822470977902354,-0.0018072683936916115,0.0,1.2058105572830876e-15,9.8461904128
468,164.223,0.696969696969697,-0.017709695570429698,0.0046137164527251355,-0.9619379005511052,-0.27261218635205825,-0.0006612280523401889,0.11201047003269024,-0.0014660909585653933,0.0,1.204859390426485e-15,9.838423545999998
469,164.332,0.8125,-0.01228668451314365,0.00306573402995195,-0.9619944555151575,-0.2727159383641325,0.0010135775741656739,0.10240001684427186,-0.001779513569083118,0.0,1.20381214610962e-15,9.8298721472
470,164.415,0.90625,-0.00838890823384732,0.001932190184328479,-0.9620177441849087,-0.2727886401532543,0.002473990159109343,0.09428140836954058,-0.0022174275703728636,0.0,1.2030147031894381e-15,9.823360531599999
471,164.514,0.8108108108108109,-0.0038721231415900985,0.0006183811940949248,-0.9620415608484887,-0.2728684291735385,0.00392346355877795,0.08462609024345645,-0.002627845792099726,0.0,1.202169221539125e-15,9.81645665
472,164.623,0.8378378378378378,-6.502055820088812e-05,-0.0004912325708785467,-0.9620328910074752,-0.27289525908071743,0.0029432974383234566,0.07424496144056277,-0.002093982212245451,0.0,1.202169221539125e-15,9.81645665
473,164.716,0.8421052631578947,0.0031832412790039517,-0.0014379672510856202,-0.9620254938036747,-0.2729181506528976,0.002107008913531699,0.06538766805827406,-0.001638483928516406,0.0,1.202169221539125e-15,9.81645665
474,164.822,0.8421052631578947,0.005996358806455778,-0.0023111117733361007,-0.9619940323983803,-0.27298245951596767,0.0019041873371800277,0.05423418088144344,-0.0015506770079621794,0.0,1.202169221539125e-15,9.81645665
475,164.917,0.8611111111111112,0.008090211540952815,-0.0029946803339028216,-0.961954767890913,-0.2730584615307738,0.002083028779843794,0.04372963468095082,-0.0016792888708590972,0.0,1.202169221539125e-15,9.81645665
476,165.027,0.7777777777777778,0.010228200626724396,-0.0037180150596533507,-0.9619117057683352,-0.27314254475604133,0.0021318047222430273,0.03208888068588285,-0.0017710048622185722,0.0,1.2020596093572775e-15,9.81556159861111
477,165.111,0.7727272727272727,0.011033361780388001,-0.004073480538311636,-0.9618857603598221,-0.2731954332747745,0.0017117858468924723,0.02470856341016003,-0.0016758094924236066,0.0,1.2016592866061822e-15,9.812292715277778
478,165.212,0.825,0.012001472215150147,-0.004500885459079316,-0.9618545640948242,-0.2732590254222989,0.0012067631515305195,0.015834610495303245,-0.0015613483930272843,0.0,1.2011779461554604e-15,9.808362272222222
479,165.316,0.9473684210526315,0.012449289872091878,-0.004779188528002317,-0.9618286101760737,-0.27332739425126384,0.0010965831577777903,0.007564917765557599,-0.0018581256922334574,0.0,1.2009682532858392e-15,9.80665
480,165.414,0.9210526315789473,0.012491865280295467,-0.004929629742168815,-0.9618084165138424,-0.2733938142725459,0.0012759719835594059,0.00037202442064976533,-0.0024243068750946966,0.0,1.2009682532858392e-15,9.80665
481,165.532,0.9714285714285714,0.012343280940322303,-0.005054169508170725,-0.9617882620353889,-0.2734686960805574,0.0018296356052161812,-0.007782415419817535,-0.0027443244126624496,0.0,1.2009682532858392e-15,9.80665
482,165.615,0.8571428571428571,0.011741361459009992,-0.005000887461578842,-0.9617844403230881,-0.2735086903285385,0.0030594969964587515,-0.012257800066844106,-0.0020691529598551995,0.0,1.2009682532858392e-15,9.80665
483,165.71,0.7948717948717948,0.011052417474375414,-0.0049399019865640345,-0.9617800660740691,-0.27355446687743246,0.004467169673182185,-0.017380228277296246,-0.001296366357244486,0.0,1.2009682532858392e-15,9.80665
484,165.822,0.8529411764705882,0.009921521015273297,-0.004794744475853761,-0.9617776542351809,-0.27360647958800854,0.005393540505319843,-0.021635085225105353,-0.0008889912338927349,0.0,1.2006511976669718e-15,9.8040610444
485,165.908,0.7575757575757576,0.008882611658391494,-0.004644078076596315,-0.961777271429025,-0.2736453714250073,0.005712471380829762,-0.02394734284281695,-0.0008457518466748334,0.0,1.2002380645878414e-15,9.8006875568
486,166.022,0.7575757575757576,0.007475512716133281,-0.004425607253911811,-0.9617760695181782,-0.2736979375956536,0.005915572363883346,-0.02676984024047841,-0.0008677401123567988,0.0,1.1998441470007637e-15,9.7974709756
487,166.119,0.7941176470588235,0.006122208188664058,-0.004141996199047973,-0.9617714275232889,-0.27374793846267537,0.004943560371175413,-0.027907160282135003,-0.001299760262947524,0.0,1.2003101226830386e-15,9.8012759558
488,166.215,0.7894736842105263,0.004782855254261593,-0.003861308969492024,-0.961766833384017,-0.2737974238568412,0.003981569120660392,-0.029032755374908483,-0.0017273265975527572,0.0,1.2007712944923003e-15,9.8050417094
489,166.33,0.8387096774193549,0.0031579302055392625,-0.003497283721201408,-0.9617627835348469,-0.2738382100349368,0.0036066644601523935,-0.029288927868008578,-0.0011481008185072433,0.0,1.2009682532858392e-15,9.80665
490,166.412,0.9354838709677419,0.00199119239330959,-0.0032267408877588023,-0.9617604700612497,-0.27385998634388703,0.003646496258676055,-0.029040101736783962,-0.000303908342495496,0.0,1.2009682532858392e-15,9.80665
491,166.517,0.9090909090909091,0.0005137931937850442,-0.0028856858007386206,-0.9617567836264979,-0.2738883959431137,0.003723015284996064,-0.028560897178319635,0.0005633488973513296,0.0,1.2009682532858392e-15,9.80665
492,166.616,0.84375,-0.0007454802221034462,-0.00260740022600131,-0.9617474739901145,-0.27391941456332497,0.004000738941985844,-0.026815213554774144,-0.0003409314892222513,0.0,1.2009682532858392e-15,9.80665
493,166.732,0.8125,-0.0022209925073864768,-0.0022813282394405204,-0.9617365657293016,-0.27395575961326946,0.004326152519872758,-0.024769766076681066,-0.001400492346217233,0.0,1.2009682532858392e-15,9.80665
494,166.812,0.8,-0.003083280199928774,-0.0020815721489034814,-0.9617301983096979,-0.27397085791374076,0.003951449098671281,-0.02303808846746542,-0.0012647033555443286,0.0,1.200693332842316e-15,9.804405104216865
495,166.918,0.8461538461538461,-0.004142776648201284,-0.0018303263252483545,-0.9617223792758829,-0.2739855341797466,0.003134644566006461,-0.02057198034113158,-0.0006214984555645571,0.0,1.200182077280676e-15,9.800230385742971
496,167.02,0.8333333333333334,-0.00511634428316003,-0.0015845696164281907,-0.9617134162913633,-0.2740043806196158,0.0023281007930634648,-0.018177722454070563,-0.00017276265332484016,0.0,1.1998441470007637e-15,9.7974709756
497,167.125,0.8666666666666667,-0.005864312944238838,-0.0013094974574881487,-0.9616962275281835,-0.2740499196489267,0.0013840634918305184,-0.015595685955136785,-0.0006525449457113107,0.0,1.2003485536671437e-15,9.8015897686
498,167.228,0.8285714285714286,-0.006598034583201991,-0.001039664768242154,-0.9616793661700167,-0.2740945912681556,0.0004580078534780316,-0.013062831103801286,-0.0011231885277666956,0.0,1.2008433525874975e-15,9.8056301084
499,167.317,0.9142857142857143,-0.007050162751465403,-0.0008528793841103782,-0.9616660679729739,-0.274130780443349,-0.0004201898753896921,-0.010986711967186985,-0.0014584828798930524,0.0,1.2009682532858392e-15,9.80665
500,167.418,0.8378378378378378,-0.007478077115855568,-0.0006626270017459012,-0.9616515721774291,-0.27417072008234455,-0.0014533334825860798,-0.008683338483045727,-0.001805555941796796,0.0,1.2009682532858392e-15,9.80665
501,167.514,0.8648648648648649,-0.007857052522220964,-0.0004890061148437836,-0.9616381724144291,-0.2742080365859883,-0.0023363375606300614,-0.006541243200415423,-0.0021448331366804517,0.0,1.2009682532858392e-15,9.80665
502,167.64,0.8372093023255814,-0.00800231518334458,-0.00035264440831246256,-0.9616253864153341,-0.274248819317233,-0.002239296499136538,-0.004329225121651875,-0.0027092189205089223,0.0,1.2009682532858392e-15,9.80665
503,167.711,0.8055555555555556,-0.00808416954000952,-0.00027580566891778635,-0.9616181816063203,-0.2742718000626169,-0.0021846146311520617,-0.0030827704899669558,-0.0030272458304441904,0.0,1.2009682532858392e-15,9.80665
504,167.845,0.8611111111111112,-0.00803359913031416,-0.0001491235907276741,-0.9616089756462689,-0.27430564688642783,-0.002689897005754288,-0.0004974546975850948,-0.0025671823840750802,0.0,1.2009682532858392e-15,9.80665
505,167.93,0.7857142857142857,-0.007942139780068445,-7.407581941129516e-05,-0.9616044078568123,-0.2743243585093119,-0.003186619816444531,0.0012099148327139467,-0.001968309302736262,0.0,1.2009682532858392e-15,9.80665
506,168.029,0.8043478260869565,-0.007790162701258186,-5.98047866495589e-06,-0.9615982923381927,-0.27435012204976417,-0.0032431364699731656,0.0030757421161980297,-0.001498815347440553,0.0,1.2009682532858392e-15,9.80665
507,168.132,0.7083333333333334,-0.007492065686005908,5.3892132225428735e-06,-0.9615894802561807,-0.2743891525471936,-0.00169432801753261,0.004638917319476822,-0.0017125523108989303,0.0,1.2009682532858392e-15,9.80665
508,168.218,0.8372093023255814,-0.007243169148999218,1.4882354021811157e-05,-0.9615821225954716,-0.27442174111786277,-0.0004011481446214225,0.005944092731922844,-0.0018910122998058777,0.0,1.2009682532858392e-15,9.80665
509,168.315,0.8780487804878049,-0.006882138830594698,1.3813994534445811e-05,-0.9615778596566844,-0.2744457159218093,0.0002473103473894422,0.007024048035964432,-0.0018361985338851668,0.0,1.2009682532858392e-15,9.80665
510,168.416,0.8536585365853658,-0.006456877386236166,5.465380265784545e-06,-0.9615759009391915,-0.27446282478649203,0.00042468519369141344,0.007907554320991092,-0.0016217507850378632,0.0,1.2009682532858392e-15,9.80665
511,168.522,0.8717948717948718,-0.006011695021948357,-1.1193336382765917e-05,-0.9615731952613958,-0.27448274306649484,0.00042182504571973683,0.008580631710588928,-0.0015423142816871455,0.0,1.2009682532858392e-15,9.80665
512,168.625,0.868421052631579,-0.005584487979032734,-6.489454076325756e-05,-0.9615674783467905,-0.27451142024877445,-0.00047887887409896364,0.008027234084904144,-0.0021569327916950553,0.0,1.2009682532858392e-15,9.80665
513,168.713,0.8421052631578947,-0.0052194955540175005,-0.00011077518139901036,-0.9615625939925644,-0.2745359211423725,-0.0012484123201575408,0.00755442834645508,-0.0026820437517017324,0.0,1.2009682532858392e-15,9.80665
514,168.819,0.9210526315789473,-0.004774104394777707,-0.0001873317313494483,-0.9615571801032726,-0.2745628108112027,-0.0015334846428595509,0.007350921034812927,-0.002713519162498423,0.0,1.2009682532858392e-15,9.80665
515,168.917,0.9743589743589743,-0.004358979605691487,-0.0002705267090938896,-0.9615524486267041,-0.2745861415653136,-0.001422729105222958,0.007376215860247615,-0.002392111488617922,0.0,1.2009682532858392e-15,9.80665
516,169.02,0.9487179487179487,-0.003923588939328551,-0.0003521006359009532,-0.9615474922165113,-0.27461033347299935,-0.001189909550361171,0.00738966854661702,-0.0020695936977862864,0.0,1.2009682532858392e-15,9.80665
517,169.136,0.9473684210526315,-0.0034388429420353153,-0.0004080500520654287,-0.9615420110879772,-0.2746355628327474,-0.0002148152813314971,0.007324397347867486,-0.0017999916560947787,0.0,1.2009682532858392e-15,9.80665
518,169.212,0.9736842105263158,-0.0031212507369121484,-0.0004447065661042244,-0.9615384200037653,-0.2746520924132721,0.00042403958458452073,0.007281633459031583,-0.0016233558356761979,0.0,1.2009682532858392e-15,9.80665
519,169.312,0.9210526315789473,-0.0027387787128705975,-0.0004914955613943423,-0.9615329013123445,-0.27467543098506814,0.0011037674732507466,0.006890131760388479,-0.0018947771415115757,0.0,1.2009682532858392e-15,9.80665
520,169.443,0.918918918918919,-0.0022713333501734444,-0.000551420038904968,-0.9615249190195923,-0.27470751198977666,0.0018416058097501559,0.006059255173429711,-0.0027282891208307326,0.0,1.2009682532858392e-15,9.80665
521,169.513,0.918918918918919,-0.0020329207809450986,-0.0005845967060963434,-0.9615207007177972,-0.27472432582346845,0.002223386615514817,0.005585661173798003,-0.0029932472012003763,0.0,1.2009682532858392e-15,9.80665
522,169.631,0.782608695652174,-0.0017609023123799472,-0.0006537303212980526,-0.9615141273794452,-0.2747489137533369,0.0027243258431554245,0.004448963656090108,-0.0013784064711070251,0.0,1.2009682532858392e-15,9.80665
523,169.726,0.9444444444444444,-0.0015419043927724031,-0.0007093887403163794,-0.9615088352850093,-0.2747687091206039,0.0031276243738830446,0.0035338258240371133,-7.832283247250762e-05,0.0,1.2009682532858392e-15,9.80665
524,169.826,0.9444444444444444,-0.0013811940301733604,-0.0007735551645196555,-0.9615043135072819,-0.27478522502783653,0.003038591838308743,0.002549588247867567,0.0004969475558027623,0.0,1.2009682532858392e-15,9.80665
525,169.914,0.975,-0.0012636607323056588,-0.0008319307437416186,-0.9615006932819735,-0.27479828017396507,0.00278449248492957,0.0016762948971952231,0.0007317215850990425,0.0,1.2009682532858392e-15,9.80665
526,170.037,0.95,-0.0011194649003353485,-0.0009069838647519789,-0.9614951386239546,-0.2748181539704121,0.002067984247708257,0.0007597824519967675,0.0008424660853140083,0.0,1.2009682532858392e-15,9.80665
527,170.132,0.975,-0.0010541290748559383,-0.0009499609649156611,-0.9614897148072971,-0.27483723130220605,0.000686319836185172,0.000748983274217739,0.000429672465719954,0.0,1.2009682532858392e-15,9.80665
528,170.217,0.8974358974358975,-0.0009956707046901438,-0.0009884141597989596,-0.9614848619187087,-0.27485430049381115,-0.0005499062162303502,0.0007393208519943965,6.033080608312965e-05,0.0,1.2009682532858392e-15,9.80665
529,170.316,0.9743589743589743,-0.0009730814078974637,-0.001034158531768007,-0.9614826581718192,-0.274861927264167,-0.0011145753871308244,0.0003329902990308323,-8.013621492095766e-05,0.0,1.2009682532858392e-15,9.80665
530,170.412,0.95,-0.0009763873771718876,-0.001079047389611295,-0.9614824320295863,-0.2748625329261496,-0.0011771903633032536,-0.00027994415119850496,-5.581616182844513e-05,0.0,1.2009682532858392e-15,9.80665
531,170.514,0.8627450980392157,-0.0009848451750607851,-0.0011238755025054152,-0.9614818944745361,-0.27486420792850325,-0.0012307457625865812,-0.0009187265485526124,-0.00011676608584837496,0.0,1.2009682532858392e-15,9.80665
532,170.612,0.9523809523809523,-0.001036683032936247,-0.001141609818956298,-0.9614787502875144,-0.2748749347761155,-0.001167529691010711,-0.0014223179975524757,-0.0009424811732024296,0.0,1.2009682532858392e-15,9.80665
533,170.732,0.9047619047619048,-0.0011001579609470295,-0.0011633253084879953,-0.9614749002625897,-0.27488806969155916,-0.0010901222564279978,-0.0020389605881646726,-0.0019535608720035085,0.0,1.2009682532858392e-15,9.80665
534,170.828,0.9523809523809523,7.411555477641234e-05,-0.0011973683522365024,-0.9614722100456183,-0.274893335644836,-0.005874402187912413,0.020310685910993748,-0.0027248968854326344,0.0,1.2009682532858392e-15,9.80665
535,170.92,0.8372093023255814,0.0015484908777354432,-0.0012347425698233572,-0.9614697429797493,-0.274896888691606,-0.011840069202683315,0.048237282977888415,-0.0034534018716807077,0.0,1.2009682532858392e-15,9.80665
536,171.014,0.8048780487804879,0.0033849009105851287,-0.001296387590120014,-0.9614635270661526,-0.2748962275064923,-0.017913299985230276,0.07681137585640109,-0.003986714996397394,0.0,1.2009346261747471e-15,9.8063754138
537,171.13,0.7567567567567568,0.01071218679763459,-0.0017322494732240651,-0.9613991814121873,-0.2748295916128004,-0.025068590976297267,0.11269258952140512,-0.0014082139804961558,0.0,1.2003773769052226e-15,9.801825128199999
538,171.223,0.7027027027027027,0.016586648758805413,-0.0020816904657127685,-0.9613475939482323,-0.274776168008375,-0.030805160477757956,0.14145942461490885,0.0006590325236322143,0.0,1.1999306167150002e-15,9.7981770544
539,171.318,0.7894736842105263,0.023030201031802505,-0.0025020845268967805,-0.9612216876495743,-0.2746975162832474,-0.03033690893650025,0.14091130831837526,0.0006530689839272638,0.0,1.1997672850325534e-15,9.79684335
540,171.412,0.8292682926829268,0.029650111756752275,-0.0029530401889586114,-0.9610567309550444,-0.2746064125389636,-0.026383527815341902,0.12386028811335544,-0.0005207461211830672,0.0,1.1997672850325534e-15,9.79684335
541,171.521,0.7906976744186046,0.036830115293543284,-0.0034409022647181784,-0.9608729698962315,-0.2745009495408342,-0.02160502590239151,0.10318545570970035,-0.0014809880424293995,0.0,1.1998345392547373e-15,9.7973925224
542,171.619,0.8604651162790697,0.040257792901172304,-0.00366566535598087,-0.9607536233554183,-0.2744072190852976,-0.01612358108162909,0.07908852714300284,0.00010143600776782143,0.0,1.2003053188100254e-15,9.8012367292
