,time,img_sim,orientation.x,orientation.y,orientation.z,orientation.w,angular_velocity.x,angular_velocity.y,angular_velocity.z,linear_acceleration.x,linear_acceleration.y,linear_acceleration.z
0,83.35,1.0,-0.0010094447617940213,0.0003323340105995157,-0.7067054008361489,-0.7075071356561687,0.0005443160771392286,-0.00048082682769745594,-0.0005417856737039982,0.0,-0.0098066499999988,9.80665
1,83.439,1.0,-0.0010090522774301623,0.00033271085661932073,-0.7067047905107348,-0.7075077456632638,0.0005468219418544311,-0.0004822554395068431,-0.000540212771389634,0.0,-0.0098066499999988,9.80665
2,83.564,0.987987987987988,-0.001006470143457404,0.0003351901067496181,-0.7067007752119575,-0.7075117588678362,0.0005633078939281393,-0.0004916542014107103,-0.0005298647298477596,0.0,-0.0098066499999988,9.80665
3,83.644,0.9910179640718563,-0.0010048175777148385,0.00033677682683300875,-0.70669820542074,-0.7075143273187625,0.0005738589032553141,-0.0004976694090291861,-0.000523241983260959,0.0,-0.0098066499999988,9.80665
4,83.761,0.9910179640718563,-0.001002826556612277,0.00033935452467517477,-0.7066936458571229,-0.7075188831564986,0.0005502842725254614,-0.0005146504833828649,-0.0005034004331100743,0.0,-0.0098066499999988,9.80665
5,83.86,0.9910179640718563,-0.001001244800717919,0.0003415978144300251,-0.7066895940575001,-0.7075229313765788,0.0005209066113457091,-0.00053099759388715,-0.0004841561848297719,0.0,-0.0098066499999988,9.80665
6,83.944,0.9969788519637462,-0.0010005064945575108,0.0003436752274362768,-0.7066861763256584,-0.7075263451220059,0.0005121926022469105,-0.0005361083754708608,-0.00048072118850716667,0.0,-0.0098066499999988,9.80665
7,84.048,0.9908536585365854,-0.001001461274251632,0.0003467858824203259,-0.706682007244263,-0.7075305063297566,0.0005515853497555048,-0.0005153232903021523,-0.0005163766544716194,0.0,-0.0098066499999988,9.80665
8,84.124,0.9969230769230769,-0.0010021589978742589,0.00034905905337020776,-0.7066789606078586,-0.7075335472123436,0.0005803723575502445,-0.0005001341896019434,-0.000542432571907179,0.0,-0.0098066499999988,9.80665
9,84.258,0.9938461538461538,-0.0010096710583728597,0.0003453893825274316,-0.7066732077140145,-0.7075392841218099,0.0005712831897041454,-0.00047991649976809116,-0.0005560035142951099,0.0,-0.0098066499999988,9.80665
10,84.337,0.9723076923076923,-0.0010159723599333513,0.00034093730883333605,-0.7066697024534848,-0.7075427782180308,0.0005480854995122014,-0.0004699534961055827,-0.0005543552516714716,0.0,-0.0098066499999988,9.80665
11,84.442,0.996996996996997,-0.0010220791178867958,0.00033696971001036534,-0.7066650950863917,-0.7075473730900071,0.0005199805544689312,-0.0004584374865517025,-0.0005493546766228986,0.0,-0.0098066499999988,9.80665
12,84.519,0.991044776119403,-0.0010202815289096394,0.00033945434714433145,-0.7066618588988302,-0.7075506065982259,0.0005069161455612623,-0.00045476756151765574,-0.0005379136803094291,0.0,-0.0098066499999988,9.80665
13,84.661,1.0,-0.0010169664946920274,0.0003440364052355408,-0.7066558908646258,-0.7075565696913044,0.0004828233395237476,-0.00044799964781850585,-0.000516814700094983,0.0,-0.0098066499999988,9.80665
14,84.747,0.996969696969697,-0.0010154137482926682,0.0003479568801689155,-0.7066520870821152,-0.7075603688704616,0.0005234711085601397,-0.0004868154080920955,-0.0005265710594054931,0.0,-0.0098066499999988,9.80665
15,84.85,0.9846153846153847,-0.001013617751208591,0.00035281267846093916,-0.7066475048838995,-0.7075649453298606,0.0005798867205157854,-0.0005393115820230099,-0.0005414105752216911,0.0,-0.0098066499999988,9.80665
16,84.964,0.9969135802469136,-0.0010115188162136658,0.00035806552516020484,-0.706642778931405,-0.7075696655167619,0.0006096781938370452,-0.0005695409701116025,-0.0005421629946970616,0.0,-0.0098066499999988,9.80665
17,85.064,0.99375,-0.0010095105287789977,0.0003624905305462108,-0.7066391530683582,-0.7075732872036345,0.0005867146638158477,-0.0005541434308166171,-0.0005192562463659679,0.0,-0.0098066499999988,9.80665
18,85.117,0.99375,-0.0010084461364386233,0.0003648357834007945,-0.7066372313609435,-0.707575206697677,0.0005745439929046096,-0.0005459827349902726,-0.0005071156697504849,0.0,-0.0098066499999988,9.80665
19,85.251,0.9968652037617555,-0.0010068640507369087,0.0003704608975683253,-0.7066327012669041,-0.707579730089057,0.0005728448810987172,-0.0005341382208280267,-0.0004975956864655016,0.0,-0.0098066499999988,9.80665
20,85.364,0.9968652037617555,-0.00100616117592403,0.0003750311984717862,-0.7066290681361125,-0.7075833569377189,0.0005879603181965646,-0.0005291523176711054,-0.0005016208323650061,0.0,-0.0098066499999988,9.80665
21,85.444,0.9936908517350158,-0.0010060889036146781,0.00037729189558314045,-0.7066262686622002,-0.7075861515414601,0.000590149809140713,-0.0005199483556207282,-0.0005165818820241816,0.0,-0.0098066499999988,9.80665
22,85.552,0.9905362776025236,-0.0010074143695957302,0.0003770821130457263,-0.7066217287520538,-0.7075906834628505,0.0005646284227259457,-0.0004885393779259175,-0.0005772997934836894,0.0,-0.0098066499999988,9.80665
23,85.677,0.9874213836477987,-0.0010087915574586803,0.00037708698810737554,-0.7066165119169172,-0.7075958911872697,0.0005361735603368156,-0.00045518383891490045,-0.0006408221333803808,0.0,-0.0098066499999988,9.80665
24,85.764,0.9622641509433962,-0.0010075840078575206,0.0003805093410226598,-0.7066134012792693,-0.7075989973546919,0.0005313294654970163,-0.0004733451067032387,-0.0005918149857400371,0.0,-0.0098066499999988,9.80665
25,85.852,0.9937694704049844,-0.0010063625783758876,0.0003839710313277756,-0.7066102548871657,-0.7076021392251879,0.0005264296914061837,-0.0004917151246960446,-0.0005422445375520925,0.0,-0.0098066499999988,9.80665
26,85.936,0.990625,-0.0010055903128449442,0.0003870848901606702,-0.7066070951912353,-0.7076052939033176,0.0005265780582196607,-0.000512483120205781,-0.0005092215156127006,0.0,-0.0098066499999988,9.80665
27,86.053,0.9968553459119497,-0.0010068448917151685,0.00039029446578281717,-0.7066017688178532,-0.7076106091336853,0.0005553494981189513,-0.0005605480482011442,-0.0005478418649701133,0.0,-0.0098066499999988,9.80665
28,86.133,0.9905660377358491,-0.001007702723421305,0.0003924890474047981,-0.7065981268531475,-0.707614243479236,0.0005750222775372707,-0.0005934129562321638,-0.0005742489414538159,0.0,-0.0098066499999988,9.80665
29,86.252,0.9968253968253968,-0.001009614722404346,0.00039585040758786607,-0.7065932176399208,-0.7076191409989983,0.0005935205298150508,-0.000576414479256937,-0.0005922026066838879,0.0,-0.0098066499999988,9.80665
30,86.33,0.9904761904761905,-0.001011063528033542,0.00039808345505928477,-0.7065901561110401,-0.7076221947525638,0.0006023351866078658,-0.000545012923125853,-0.000597412528958261,0.0,-0.0098066499999988,9.80665
31,86.437,0.9936507936507937,-0.0010125169972694183,0.0004009371175128449,-0.7065859006370241,-0.7076264403367853,0.0006084396203514199,-0.0005114104505628342,-0.0006034525712020695,0.0,-0.0098066499999988,9.80665
32,86.564,0.9904761904761905,-0.0010108866940332804,0.00040300698754802705,-0.7065804998447943,-0.7076318342689452,0.0005780617874115726,-0.0005310587864369141,-0.0006036661812104284,0.0,-0.0098066499999988,9.80665
33,86.644,0.9873817034700315,-0.0010098597313648468,0.00040431084268829947,-0.7065770977709488,-0.7076352320214868,0.0005589261446148149,-0.0005434356909245259,-0.0006038007386960088,0.0,-0.0098066499999988,9.80665
34,86.747,0.9905660377358491,-0.0010100652287278317,0.00040632947812088726,-0.7065730504104174,-0.707639271842226,0.0005707887399204853,-0.0005370976422524388,-0.0005623788994093647,0.0,-0.0098066499999988,9.80665
35,86.849,0.9936908517350158,-0.0010107795734483906,0.0004084421796302892,-0.7065691536308562,-0.707643160494416,0.0005947410942047818,-0.0005233732870794886,-0.0005074504813848849,0.0,-0.0098066499999988,9.80665
36,86.935,0.9936908517350158,-0.001011877427240431,0.0004097520552127701,-0.7065658582472908,-0.7076464485528852,0.0006046761834387841,-0.0005170575533402237,-0.0004719213521595873,0.0,-0.0098066499999988,9.80665
37,87.044,0.9716088328075709,-0.0010160168195456013,0.00040879818524297177,-0.7065616268462945,-0.7076506680491162,0.0005603758518913011,-0.0005381963414875486,-0.0004866829764242055,0.0,-0.0098066499999988,9.80665
38,87.133,0.9937106918238994,-0.0010193966903268873,0.0004080193372859804,-0.7065581718491507,-0.7076541133258554,0.00052420402154519,-0.0005554564529105944,-0.000498736045777885,0.0,-0.0098066499999988,9.80665
39,87.258,0.990506329113924,-0.001022289746556587,0.00040942752151518143,-0.7065525734561022,-0.7076596979920255,0.0005489961463026652,-0.000555603870889173,-0.0004979168095160283,0.0,-0.0098066499999988,9.80665
40,87.358,0.9968354430379747,-0.0010239563733776432,0.00041142835605947436,-0.7065478341161843,-0.7076644263243652,0.000595244740601628,-0.0005473026435356591,-0.0004910599237773569,0.0,-0.0098066499999988,9.80665
41,87.47,0.9905660377358491,-0.0010252794898004832,0.0004135743960515264,-0.706542825332257,-0.7076694240197785,0.0006211263411010497,-0.0005459200912730327,-0.0005012783168562748,0.0,-0.0098066499999988,9.80665
42,87.522,0.9873817034700315,-0.0010255693542766033,0.0004145141254375609,-0.7065406784753487,-0.7076715664686366,0.000617672040626273,-0.0005500028563841468,-0.0005167066437318424,0.0,-0.0098066499999988,9.80665
43,87.648,1.0,-0.0010262717181995095,0.00041679116202679776,-0.7065354764759171,-0.7076767577870235,0.0006093020048604693,-0.0005598957103072291,-0.0005540906665457101,0.0,-0.0098066499999988,9.80665
44,87.74,0.9968253968253968,-0.001027587639072283,0.00041724660312554053,-0.7065310600788641,-0.7076811648235152,0.000600368252248537,-0.0005641281910878847,-0.0005536222799339769,0.0,-0.0098066499999988,9.80665
45,87.866,0.9937304075235109,-0.0010297780698931616,0.000417286848718186,-0.7065247127547125,-0.7076874985728776,0.0005867686644437691,-0.0005684791335027176,-0.0005395600261014563,0.0,-0.0098066499999988,9.80665
46,87.979,1.0,-0.0010312552875283898,0.00041815940748524957,-0.7065193928475869,-0.7076928070433908,0.0005902950677657908,-0.0005616634367894101,-0.0005385895770690195,0.0,-0.0098066499999988,9.80665
47,88.028,0.9968454258675079,-0.0010316808074259502,0.0004189069658593415,-0.7065172504113287,-0.7076949448459671,0.0005987638408452822,-0.0005539774541260599,-0.0005433067429743443,0.0,-0.0098066499999988,9.80665
48,88.147,0.990506329113924,-0.001032714212891454,0.0004207224647678502,-0.7065120473518446,-0.7077001366522238,0.0006193308611811867,-0.0005353114962293549,-0.0005547627173158455,0.0,-0.0098066499999988,9.80665
49,88.244,1.0,-0.001037435626421217,0.00041879717736979826,-0.7065076816637714,-0.7077044891546069,0.0005872620819730166,-0.0005155122974345763,-0.0005586763405133468,0.0,-0.0098066499999988,9.80665
50,88.351,0.9904761904761905,-0.0010441295338505176,0.00041536917269897037,-0.7065028182041406,-0.7077093365321874,0.0005331831201317307,-0.000491916153540991,-0.0005609157701130525,0.0,-0.0098066499999988,9.80665
51,88.477,0.9587301587301588,-0.0010484416541459481,0.0004135823071035639,-0.7064972896600313,-0.7077148503352192,0.0005209197988733663,-0.0004945307463710488,-0.0005629190891779151,0.0,-0.0098066499999988,9.80665
52,88.531,0.9937106918238994,-0.0010482494629001668,0.00041410213623992956,-0.7064950337242717,-0.707717102351468,0.0005450460594147471,-0.000513023118269688,-0.0005634155023439102,0.0,-0.0098066499999988,9.80665
53,88.662,0.990625,-0.0010477832211742899,0.0004153632032188906,-0.7064895609912253,-0.7077225655760717,0.0006035745803577244,-0.0005578842426904594,-0.0005646197639132688,0.0,-0.0098066499999988,9.80665
54,88.78,0.9968553459119497,-0.0010485601840587591,0.00041670620251249633,-0.7064841042997375,-0.7077280107355803,0.0005984806246124205,-0.0005542968749068676,-0.0005471269707195453,0.0,-0.0098066499999988,9.80665
55,88.839,0.9873817034700315,-0.001049004079220784,0.00041738728902809515,-0.7064813515533416,-0.70773075757862,0.0005932570586446672,-0.0005504663102328777,-0.0005375205024611201,0.0,-0.0098066499999988,9.80665
56,88.967,1.0,-0.001049781352554368,0.00041886276099511544,-0.7064753973063572,-0.7077366992555881,0.0005997248680796479,-0.0005444534542039037,-0.000532465397845954,0.0,-0.0098066499999988,9.80665
57,89.077,1.0,-0.0010501548896939801,0.00042012735352940715,-0.7064703086101868,-0.7077417775254827,0.0006334978400263938,-0.0005429278872907163,-0.0005531431478448213,0.0,-0.0098066499999988,9.80665
58,89.164,0.9873817034700315,-0.0010504503236134916,0.0004211275312610743,-0.7064662839141246,-0.7077457939753085,0.0006602091905660941,-0.0005417213025502861,-0.0005694973682984717,0.0,-0.0098066499999988,9.80665
59,89.284,0.9936708860759493,-0.0010539571737783492,0.0004205692729659051,-0.7064610042839152,-0.7077510590929923,0.0006413054228760285,-0.0005307911220006637,-0.0005527308275923117,0.0,-0.0098066499999988,9.80665
60,89.345,0.9968253968253968,-0.0010558523587200748,0.0004202151305700189,-0.7064583303362713,-0.7077537255494818,0.000629671860253438,-0.0005248985055368393,-0.0005427799972239878,0.0,-0.0098066499999988,9.80665
61,89.471,0.9936507936507937,-0.001058125722344291,0.0004195532977496568,-0.7064527444096529,-0.7077592982229097,0.0006108565548674225,-0.0005257501955102974,-0.0005364497416619081,0.0,-0.0098066499999988,9.80665
62,89.577,1.0,-0.0010578684689819008,0.0004190886270299387,-0.7064479622614949,-0.7077640721568402,0.0006019215844758607,-0.0005436834718388719,-0.0005499282445062887,0.0,-0.0098066499999988,9.80665
63,89.674,0.9936908517350158,-0.0010577780986335808,0.0004185700719217264,-0.7064435495918093,-0.7077684770723652,0.0005935341142028926,-0.0005589362045571922,-0.0005620688270031662,0.0,-0.0098066499999988,9.80665
64,89.738,0.9968847352024922,-0.0010607169784610532,0.00041629831467553905,-0.7064398824602742,-0.7077721341805293,0.0005836353203155612,-0.0005450618283570832,-0.0005660783821824504,0.0,-0.0098066499999988,9.80665
65,89.863,0.9685534591194969,-0.001066456978124086,0.00041186128880407887,-0.7064327200939947,-0.7077792769699124,0.0005643017385043649,-0.0005179634373412427,-0.0005739095446419905,0.0,-0.0098066499999988,9.80665
66,89.941,0.9905660377358491,-0.0010692875068922976,0.0004098117486252605,-0.7064283075442847,-0.7077836780773827,0.0005598606202325021,-0.0005049442481548791,-0.0005768879436435227,0.0,-0.0098066499999988,9.80665
67,90.041,0.9936507936507937,-0.0010699256591410356,0.0004100472014279488,-0.7064228764241468,-0.7077890976083383,0.0005845150009852384,-0.000503740308013367,-0.0005731094716468371,0.0,-0.0098066499999988,9.80665
68,90.164,0.9936507936507937,-0.0010707105864069834,0.0004103368083752553,-0.7064161961463772,-0.7077957636314137,0.0006148398893111071,-0.000502259461639307,-0.0005684619510909132,0.0,-0.0098066499999988,9.80665
69,90.252,0.9968354430379747,-0.001072353023238489,0.00041053491400351523,-0.7064119494970972,-0.7077999993358111,0.0006167274462411632,-0.0005275010039929677,-0.000587819695827063,0.0,-0.0098066499999988,9.80665
70,90.364,0.9936908517350158,-0.0010745622801705702,0.00041078604832934287,-0.7064066032657703,-0.7078053315551914,0.0006169511009456657,-0.0005625194192314871,-0.0006149516789246347,0.0,-0.0098066499999988,9.80665
71,90.456,0.9937106918238994,-0.0010757734108505633,0.0004113049487874424,-0.7064022396359244,-0.707809684409418,0.0006251743207574349,-0.0005820930874683857,-0.0006214168965835037,0.0,-0.0098066499999988,9.80665
72,90.582,0.9937694704049844,-0.0010760218946994132,0.0004127459765215683,-0.7063963285839683,-0.7078155824187704,0.0006552193862519608,-0.0005874263405135694,-0.0005933067650511964,0.0,-0.0098066499999988,9.80665
73,90.644,0.9969135802469136,-0.0010761441645297997,0.00041345505366058283,-0.7063934199711009,-0.7078184846138487,0.0006700034660984776,-0.0005900506396310414,-0.0005794747955670414,0.0,-0.0098066499999988,9.80665
74,90.724,0.9969135802469136,-0.0010776157531678877,0.0004138286036854045,-0.7063898311783031,-0.7078220636937069,0.0006660866045858707,-0.0005969178986269984,-0.0005703493140172211,0.0,-0.0098066499999988,9.80665
75,90.861,0.9969135802469136,-0.0010814152142228505,0.0004139411180552754,-0.7063838453190046,-0.7078280315252283,0.0006369888908229764,-0.0006120678535662595,-0.0005632154033519325,0.0,-0.0098066499999988,9.80665
76,90.97,0.9938271604938271,-0.0010858556968215921,0.0004128087169875952,-0.706379031164268,-0.7078328296721127,0.0008392487745731934,-0.0006013061804696929,-0.0005589469354599714,0.0,-0.0098066499999988,9.80665
77,91.085,1.0,-0.001092513507975698,0.0004099133595907197,-0.7063738800800818,-0.7078379615505744,0.0013663603086024154,-0.0005581986578181417,-0.0005564022967591883,0.0,-0.0098066499999988,9.80665
78,91.165,0.9938461538461538,-0.0010971450287785554,0.00040789919792332766,-0.7063702967171698,-0.7078415315529827,0.0017330465931445563,-0.0005282108159735783,-0.0005546321133151649,0.0,-0.0098066499999988,9.80665
79,91.245,0.9815384615384616,-0.00109892389867453,0.0004079729986158022,-0.7063658135938625,-0.707846002476392,0.001440590120851981,-0.0005478271776810298,-0.0005588136343285442,0.0,-0.018279595599999122,9.792528423999999
80,91.357,0.9938271604938271,-0.0011009705708322686,0.0004084011137301344,-0.7063593972585042,-0.7078524019124318,0.0009286177419126149,-0.0005830062935128801,-0.0005655935844406483,0.0,-0.03145973319999851,9.770561528
81,91.449,1.0,-0.0011023315703490098,0.00040872164238449593,-0.7063546326405886,-0.7078571541927655,0.0006158512417367481,-0.0006061409265615991,-0.0005691028888418619,0.0,-0.036191208333332524,9.762675736111111
82,91.555,0.9969040247678018,-0.001102963187054783,0.00040899987825149855,-0.7063506227292814,-0.7078611544048493,0.0005707258547079674,-0.0006159421865872691,-0.0005671214090571515,0.0,-0.023816149999997933,9.783300833333335
83,91.664,1.0,-0.001103612679705059,0.0004092859887185106,-0.7063464993299182,-0.7078652678304826,0.0005243233340840385,-0.0006260208407646079,-0.0005650838496558928,0.0,-0.011090854166664988,9.804509659722223
84,91.764,0.9969230769230769,-0.0011043466406188125,0.000409529703030083,-0.7063419959113871,-0.7078697602351806,0.000542467948933687,-0.0005905550360987578,-0.0005510696501005444,0.0,-0.0098066499999988,9.80665
85,91.814,1.0,-0.0011047221551041546,0.00040965040009648986,-0.7063396996778705,-0.7078720508466129,0.0005552923523223821,-0.0005700590155620698,-0.0005433120240923027,0.0,-0.0098066499999988,9.80665
86,91.956,0.9969325153374233,-0.001105870678802848,0.0004101373608828476,-0.7063334097778365,-0.7078783250293295,0.0005840415500570089,-0.000531343744369224,-0.000538612958742306,0.0,-0.0098066499999988,9.80665
87,92.065,0.9969325153374233,-0.0011069603555043802,0.0004108767150887081,-0.7063291683203979,-0.7078825550544067,0.0005866575445979832,-0.0005510498001240188,-0.0005789514123462125,0.0,-0.0098066499999988,9.80665
88,92.164,0.99079754601227,-0.001107950061866322,0.00041154823863348057,-0.7063253159874949,-0.7078863970037889,0.0005890335396397859,-0.0005689479608554394,-0.0006155890903901306,0.0,-0.0098066499999988,9.80665
89,92.247,0.9908256880733946,-0.0011099323486972392,0.00041267484671843704,-0.7063217609775421,-0.7078899403572467,0.0005784719408790315,-0.0005768917942052312,-0.0005974882526742489,0.0,-0.0098066499999988,9.80665
90,92.374,0.9969604863221885,-0.0011131799678555001,0.0004145035789106951,-0.7063162608514666,-0.7078954220982899,0.0005599752518875295,-0.0005877326649383623,-0.0005607071035333838,0.0,-0.0098066499999988,9.80665
91,92.479,0.9939393939393939,-0.0011192530498999624,0.00041148079194146226,-0.7063117881891599,-0.7078998768564136,0.0005883394776054254,-0.0006210669558626159,-0.0005397207008293242,0.0,-0.0098066499999988,9.80665
92,92.556,0.990909090909091,-0.001125965338454507,0.00040624092755888147,-0.7063085580274837,-0.7079030920857157,0.0006382444190388749,-0.0006617596800753206,-0.0005306128113732557,0.0,-0.0098066499999988,9.80665
93,92.664,0.9662576687116564,-0.001135379976946596,0.0003988915073859105,-0.7063040274111068,-0.7079076017579835,0.000708240960270211,-0.0007188351893606763,-0.0005178381092790289,0.0,-0.0098066499999988,9.80665
94,92.765,0.9938650306748467,-0.0011366064813932218,0.0003991602288384463,-0.7062998757059883,-0.7079117419029408,0.0007109594764187932,-0.0006895621470175689,-0.0005385244870558377,0.0,-0.0098066499999988,9.80665
95,92.882,0.9877300613496932,-0.0011371685280775407,0.0004002808511931546,-0.7062950759669753,-0.7079165291600648,0.0007069986080750822,-0.0006462857103906562,-0.0005661860038526363,0.0,-0.0098066499999988,9.80665
96,92.987,0.9938837920489296,-0.0011390078146151076,0.0004009229267924111,-0.7062903141027821,-0.7079212767417149,0.0006817827755585339,-0.0006343946210108695,-0.0005767561998218295,0.0,-0.0098066499999988,9.80665
97,93.076,0.9969418960244648,-0.0011412916797813209,0.00040126971929277546,-0.7062860311107703,-0.7079255459546526,0.0006486471912357987,-0.0006389477464836087,-0.0005779755609109995,0.0,-0.0098066499999988,9.80665
98,93.186,0.9969604863221885,-0.001144224235935706,0.00040189143465947246,-0.7062807738277929,-0.7079307859804052,0.0006138648651055221,-0.0006448098921585678,-0.0005790721040587715,0.0,-0.0098066499999988,9.80665
99,93.292,0.9969512195121951,-0.001147839649178107,0.0004038789387914276,-0.706275968742449,-0.70793557280454,0.0006247236492830175,-0.0006521463192863548,-0.0005771769591471335,0.0,-0.0098066499999988,9.80665
100,93.394,0.9878048780487805,-0.0011513186317321158,0.00040579144276746014,-0.7062713449810805,-0.7079401789938018,0.0006351726680198538,-0.0006592059001074334,-0.0005753533291378211,0.0,-0.0098066499999988,9.80665
101,93.461,0.9969512195121951,-0.0011520995104743145,0.00040692197649430987,-0.7062684183135582,-0.7079430968189407,0.0006345111686714936,-0.000653823929298241,-0.0005779603165681419,0.0,-0.0098066499999988,9.80665
102,93.584,0.9908256880733946,-0.0011524398949659224,0.00040890607664648945,-0.7062631257807936,-0.7079483750807642,0.0006278284628682866,-0.0006366628904602138,-0.0005855111923100875,0.0,-0.0098066499999988,9.80665
103,93.677,0.9969418960244648,-0.0011527232333486844,0.00041036431288991,-0.7062591247487005,-0.7079523653019721,0.0006233650747597574,-0.0006236261639473181,-0.0005908146657353911,0.0,-0.0098066499999988,9.80665
104,93.789,1.0,-0.0011540028915750307,0.0004106053236091273,-0.7062543293886717,-0.7079571468959546,0.0006392838821126763,-0.0006057110610900382,-0.0005825431818008957,0.0,-0.0098066499999988,9.80665
105,93.868,0.996875,-0.0011549055076453998,0.00041077532224143243,-0.7062509469472229,-0.7079605196274242,0.0006505123265848241,-0.0005930745153246359,-0.0005767088315256713,0.0,-0.0098066499999988,9.80665
106,94.002,0.996875,-0.0011594964882781652,0.00040987675183625367,-0.7062449281448526,-0.7079665168245193,0.0006389471788303452,-0.000596826672591418,-0.0005871285780250687,0.0,-0.0098066499999988,9.80665
107,94.094,0.9688473520249221,-0.0011642036933687324,0.0004086565837394844,-0.7062406527654889,-0.7079707747605146,0.0006154493230533433,-0.0006122034151540927,-0.000604607790650566,0.0,-0.0098066499999988,9.80665
108,94.168,0.9969418960244648,-0.0011679899235502763,0.0004076751441833872,-0.7062372138733919,-0.7079741996220761,0.0005965488738414034,-0.0006245716646066812,-0.0006186671573275991,0.0,-0.0098066499999988,9.80665
109,94.241,0.9908536585365854,-0.001169404623984267,0.0004080893711292141,-0.7062335916929026,-0.7079778102847173,0.0006033939647022627,-0.0005999109914992032,-0.0006065450140740735,0.0,-0.0098066499999988,9.80665
110,94.401,0.9939024390243902,-0.0011720498987249218,0.00040926860247500756,-0.7062256075701555,-0.7079857696188385,0.0006234000774566071,-0.0005386250114534091,-0.0005748743468429912,0.0,-0.0098066499999988,9.80665
111,94.467,1.0,-0.0011726299669019787,0.000409617805784929,-0.7062222660296243,-0.7079891016602136,0.0006337226117029772,-0.0005366078820079554,-0.0005746576632373025,0.0,-0.0098066499999988,9.80665
112,94.545,1.0,-0.0011729924128271144,0.0004099437529177001,-0.7062182865369471,-0.7079930703856419,0.0006472304984927169,-0.0005489295786246651,-0.0005825229198671871,0.0,-0.0098066499999988,9.80665
113,94.689,0.9968553459119497,-0.0011736354412706163,0.00041082931141606875,-0.7062109967656994,-0.7080003402744526,0.0006731968047097292,-0.0005751336424145796,-0.0005953506228979677,0.0,-0.0098066499999988,9.80665
114,94.776,0.9968553459119497,-0.0011738883134072022,0.000412838965517643,-0.7062068886106828,-0.708004436394101,0.0006942295744083797,-0.0006089237071573695,-0.0005943053388036787,0.0,-0.0098066499999988,9.80665
115,94.88,0.99375,-0.001174190597340592,0.00041524131065055926,-0.706201977712732,-0.7080093329049453,0.00071937219565734,-0.0006493164282292085,-0.0005930558037944138,0.0,-0.0098066499999988,9.80665
116,94.962,0.996875,-0.001174461777752431,0.00041733708152607175,-0.7061984057542747,-0.7080128940552971,0.0007139440887130626,-0.0006696426601156712,-0.0005876859810915059,0.0,-0.0098066499999988,9.80665
117,95.102,0.9876160990712074,-0.001174989692167079,0.00042131379658900075,-0.7061929005458334,-0.7080183818696503,0.0006547558842590303,-0.0006815684633708098,-0.0005698500795486736,0.0,-0.0098066499999988,9.80665
118,95.17,0.9938271604938271,-0.0011752461077399082,0.00042324534390528044,-0.7061902265874476,-0.7080210473794789,0.0006260073278099298,-0.0006873609963804484,-0.000561186927370727,0.0,-0.0098066499999988,9.80665
119,95.249,0.99079754601227,-0.0011771270908068788,0.00042437694216092747,-0.7061861546596749,-0.708025104893274,0.0006301614619043512,-0.0006607927688613827,-0.0005878788411276255,0.0,-0.0098066499999988,9.80665
120,95.363,0.9908256880733946,-0.0011798414208022546,0.000426009881415912,-0.7061802787132689,-0.7080309600397631,0.0006361560351545296,-0.0006224538076313336,-0.0006263962862958128,0.0,-0.0098066499999988,9.80665
121,95.439,0.9625,-0.0011812312380064568,0.00042707603701784157,-0.7061762677178142,-0.708034957602261,0.0006388375500682746,-0.0006005832506343736,-0.000646428230684251,0.0,-0.0098066499999988,9.80665
122,95.564,0.9937106918238994,-0.0011807096759860695,0.00042867928585306963,-0.7061690439787005,-0.7080421621482357,0.0006344533199444418,-0.0005892845033667996,-0.0006416093348525469,0.0,-0.0098066499999988,9.80665
123,95.649,0.9968553459119497,-0.0011803550138122063,0.0004297694950610248,-0.7061641318361033,-0.7080470612394983,0.0006314720434602352,-0.0005816013552248484,-0.0006383324856869877,0.0,-0.0098066499999988,9.80665
124,95.753,0.9968944099378882,-0.001180678642130953,0.00043150725277764346,-0.7061595397636854,-0.7080516394675496,0.0006290785514283927,-0.0006082247591111786,-0.0006221161275170755,0.0,-0.0098066499999988,9.80665
125,95.832,0.9877675840978594,-0.001181106582853777,0.00043292436072721644,-0.7061563924390903,-0.7080547767864058,0.0006275619054213169,-0.0006371079124510242,-0.0006068635485135043,0.0,-0.0098066499999988,9.80665
126,95.931,0.9939024390243902,-0.0011817225639768718,0.0004345590522003602,-0.7061523784006272,-0.7080587780406661,0.0006279924937989534,-0.0006661356175318422,-0.0005903874004725349,0.0,-0.0098066499999988,9.80665
127,96.063,0.9908536585365854,-0.0011839405368767881,0.000434264664754293,-0.7061458010349668,-0.7080653340609818,0.0006694180357735591,-0.0005792348841205268,-0.0006146442678291342,0.0,-0.0098066499999988,9.80665
128,96.165,0.9938461538461538,-0.0011856544250267236,0.0004340371835459684,-0.7061407185251384,-0.7080704000766803,0.0007014286818448453,-0.0005120843173936013,-0.0006333882107865063,0.0,-0.0098066499999988,9.80665
129,96.254,0.9969230769230769,-0.0011891165640587956,0.000435610724049739,-0.7061363311808765,-0.7080747686053371,0.0007127178237007804,-0.0005614257527132445,-0.0006290694759429797,0.0,-0.0098066499999988,9.80665
130,96.344,0.990909090909091,-0.0011928413418667576,0.0004374035379717189,-0.706131899932425,-0.7080791803235177,0.0007222405809213361,-0.0006236005487038186,-0.0006223502872592737,0.0,-0.0098066499999988,9.80665
131,96.503,1.0,-0.0011963502741774922,0.00043949136247478567,-0.7061237698812128,-0.7080872807273674,0.0007151599594151549,-0.0006801156691395709,-0.0006228113695303154,0.0,-0.0098066499999988,9.80665
132,96.565,0.9938271604938271,-0.0011964105279339426,0.0004398457835690257,-0.7061204712728456,-0.7080905698431165,0.0007022193195523642,-0.0006794435743828336,-0.0006282426245067445,0.0,-0.0098066499999988,9.80665
133,96.645,0.9938271604938271,-0.0011964882747164595,0.0004403031011099806,-0.7061162150039845,-0.7080948138634379,0.0006855217197294082,-0.0006785763553418821,-0.0006352506954440724,0.0,-0.0098066499999988,9.80665
134,96.783,0.9969230769230769,-0.0012014311385448913,0.0004385193337609947,-0.7061088975059092,-0.7081021035165058,0.0006646630605682725,-0.0006706084618344901,-0.0006333298129029569,0.0,-0.0098066499999988,9.80665
135,96.855,0.9569230769230769,-0.0012047069444015499,0.0004372158261430987,-0.7061050832410742,-0.7081059022801376,0.0006549316877499213,-0.0006655133375898,-0.0006302972068078812,0.0,-0.0098066499999988,9.80665
136,96.939,0.9969230769230769,-0.0012080863722710462,0.0004358546446192547,-0.7061007981091114,-0.708110170422445,0.0006519153849147536,-0.0006567001620129476,-0.0006261932396003422,0.0,-0.0098066499999988,9.80665
137,97.03,0.9878048780487805,-0.0012093513803008357,0.0004352444086884712,-0.706097048786074,-0.7081139072717146,0.0006938062863799185,-0.0006316128753652547,-0.0006186818384910482,0.0,-0.0098066499999988,9.80665
138,97.126,0.9969325153374233,-0.0012106858942663283,0.00043460064331094135,-0.7060930934562765,-0.7081178494423728,0.0007379988857277824,-0.0006051471663742833,-0.0006107577230350901,0.0,-0.0098066499999988,9.80665
139,97.211,0.9969230769230769,-0.0012119180738043688,0.0004347327977300632,-0.7060897034197803,-0.7081212275888186,0.0007408525554900892,-0.0005944507623401779,-0.0006113155844554031,0.0,-0.0098066499999988,9.80665
140,97.35,0.9876923076923076,-0.0012140512082375373,0.0004365892375939306,-0.7060844215433186,-0.7081264894638482,0.0006607754137759761,-0.0006067138165235517,-0.00062992174672075,0.0,-0.0098066499999988,9.80665
141,97.446,0.9907692307692307,-0.00121497398394073,0.0004378493398940285,-0.7060806244532116,-0.7081302732387081,0.000622319742338732,-0.0006138761951588095,-0.0006352215439546851,0.0,-0.0098066499999988,9.80665
142,97.549,0.9969230769230769,-0.0012138547363375724,0.0004391168584559074,-0.7060759788747959,-0.708134906441883,0.000645624323282393,-0.0006165523449890319,-0.0006119754300452746,0.0,-0.0098066499999988,9.80665
143,97.679,1.0,-0.0012125069410189415,0.0004407249819282336,-0.7060701079163684,-0.7081407616362801,0.0006740031074732541,-0.0006204750784672805,-0.000584003990516067,0.0,-0.0098066499999988,9.80665
144,97.797,0.9907407407407407,-0.0012131376911672545,0.0004424232020851244,-0.7060645613900461,-0.7081462897136992,0.000670176004525274,-0.000639620483852923,-0.0005977378389798103,0.0,-0.0098066499999988,9.80665
145,97.869,0.9938837920489296,-0.00121352255566453,0.0004434594042147528,-0.7060611770689004,-0.708149662777887,0.0006678408230654894,-0.0006513024261221295,-0.0006061178143136205,0.0,-0.0098066499999988,9.80665
146,97.911,0.9969418960244648,-0.0012137470599546075,0.00044406385545703607,-0.7060592028815653,-0.7081516303986634,0.0006664786338806151,-0.0006581168924458333,-0.0006110061332583431,0.0,-0.0098066499999988,9.80665
147,98.036,0.9939024390243902,-0.0012150956994221149,0.0004446147213026171,-0.7060528764718264,-0.7081579353531732,0.0006711879321374001,-0.0006351260878145686,-0.0006216672426089647,0.0,-0.0098066499999988,9.80665
148,98.166,0.9878419452887538,-0.0012165875427693155,0.0004450239075436976,-0.7060462378668875,-0.7081645513938876,0.0006772351120598614,-0.0006055396180599929,-0.0006322448737919329,0.0,-0.0098066499999988,9.80665
149,98.273,0.963302752293578,-0.0012179533645688848,0.0004466558448320056,-0.7060410891540884,-0.7081696812479836,0.0006255152273095341,-0.0006186547333426354,-0.0006249762082006786,0.0,-0.0098066499999988,9.80665
150,98.374,0.9969230769230769,-0.0012192545540999475,0.000448308543913822,-0.7060362564926157,-0.7081744960834052,0.000571780614019007,-0.0006342823286854929,-0.0006167303176230891,0.0,-0.0098066499999988,9.80665
151,98.447,0.9907692307692307,-0.0012198627536275332,0.00044927151474700023,-0.7060325939716925,-0.7081781458860145,0.0005565067563551427,-0.0006411567756590706,-0.0006138545004726054,0.0,-0.0098066499999988,9.80665
152,98.561,0.9938837920489296,-0.00121943751709978,0.00044981707827218705,-0.7060261725235278,-0.7081845481590967,0.000630170784256004,-0.0006335975931799638,-0.0006221265362147545,0.0,-0.0098066499999988,9.80665
153,98.682,0.9969418960244648,-0.0012189721076055267,0.00045044538556887067,-0.7060194284943321,-0.7081912720353137,0.0007005812362767732,-0.0006255286226514725,-0.0006301456002984193,0.0,-0.0098066499999988,9.80665
154,98.749,1.0,-0.0012185875949261684,0.0004512373616674826,-0.7060163409330343,-0.7081943502367471,0.0006694398671388635,-0.000620649222750217,-0.0006277243001386523,0.0,-0.0098066499999988,9.80665
155,98.878,0.993920972644377,-0.0012178472645435227,0.0004527622111707804,-0.706010396225461,-0.708200276923089,0.0006094811116345213,-0.000611254557268694,-0.0006230623938608912,0.0,-0.0098066499999988,9.80665
156,98.937,0.9969512195121951,-0.0012177504467911341,0.00045335885592467424,-0.7060076243582349,-0.7082030400121844,0.0005908055165782572,-0.0006090263281948866,-0.0006256719613447786,0.0,-0.0098066499999988,9.80665
157,99.045,0.9969135802469136,-0.0012193066819952889,0.00045372857080355707,-0.7060021706640811,-0.7082084737960382,0.0006193341035395873,-0.0006197780300863093,-0.0006644447846338168,0.0,-0.0098066499999988,9.80665
158,99.16,0.9937888198757764,-0.0012209637842960088,0.00045412224868384896,-0.7059963634897506,-0.7082142597695864,0.0006497117655817417,-0.0006312266015447677,-0.0007057306612841781,0.0,-0.0098066499999988,9.80665
159,99.255,0.9937888198757764,-0.0012220813576326237,0.00045520018974353626,-0.7059919688682581,-0.7082186379526342,0.0006571709807030856,-0.0006396815855987369,-0.0007014514785259964,0.0,-0.0098066499999988,9.80665
160,99.349,0.9969135802469136,-0.0012231405373635794,0.0004564064350744069,-0.705987695200592,-0.7082228955543781,0.0006612798515707257,-0.0006478615738451488,-0.0006900959294289342,0.0,-0.0098066499999988,9.80665
161,99.47,0.9969040247678018,-0.0012260744919680865,0.0004561726366679827,-0.7059823574751096,-0.7082282114707162,0.0006808973827948462,-0.0006388321206292722,-0.0006642901165637209,0.0,-0.0098066499999988,9.80665
162,99.571,0.9906542056074766,-0.001230737541944535,0.0004534589673463864,-0.7059781324886499,-0.7082324166619048,0.0007174716496179652,-0.0006037221398701773,-0.0006269768322910748,0.0,-0.0098066499999988,9.80665
163,99.663,0.9657320872274143,-0.0012349850726161512,0.00045098711014255607,-0.7059742839861322,-0.7082362471330866,0.0007507868233578358,-0.0005717407712579326,-0.0005929884941417341,0.0,-0.0098066499999988,9.80665
164,99.738,0.9938650306748467,-0.0012364221609471994,0.000450615168260423,-0.705970931188162,-0.7082395869149546,0.0007325940488548257,-0.0005974720888010459,-0.0005989569057042581,0.0,-0.0098066499999988,9.80665
165,99.82,0.9876543209876543,-0.0012375290204621858,0.00045058520160903305,-0.7059672160752232,-0.7082432881828601,0.0007023064846792617,-0.000637480714061548,-0.000613202569325382,0.0,-0.0098066499999988,9.80665
166,99.942,0.9968944099378882,-0.0012390983517633453,0.0004506222941865324,-0.7059616256972897,-0.7082488578177759,0.0006599883374993725,-0.0006826255584124495,-0.0006317798095946031,0.0,-0.0098066499999988,9.80665
167,100.07,0.9937888198757764,-0.001240165143161489,0.0004512724949595982,-0.7059552887704771,-0.7082551719013882,0.0006361242774574772,-0.0006223671476311855,-0.0006316807078960609,0.0,-0.0098066499999988,9.80665
168,100.178,0.9938080495356038,-0.001241101856626096,0.0004518084009966187,-0.7059499399266398,-0.7082605014047075,0.0006167963542975475,-0.0005730810556560742,-0.0006316796243190763,0.0,-0.0098066499999988,9.80665
169,100.282,0.9906832298136646,-0.0012438722522030976,0.0004516762441315377,-0.70594468395797,-0.7082657353517607,0.0006393904355354596,-0.0006050820872187598,-0.0006358908452093598,0.0,-0.0098066499999988,9.80665
170,100.365,0.9906832298136646,-0.0012460832409808972,0.0004515707727872904,-0.7059404892906663,-0.7082699124441205,0.0006574222503695622,-0.0006306213720235954,-0.0006392517234198745,0.0,-0.0098066499999988,9.80665
171,100.471,0.9968847352024922,-0.0012475296953627186,0.00045177406767646437,-0.7059342858599049,-0.7082760927504074,0.000682197514897202,-0.0006327352185755146,-0.0006267344814622931,0.0,-0.0098066499999988,9.80665
172,100.563,0.9968847352024922,-0.0012471647841548405,0.0004523481680667317,-0.7059279059604711,-0.7082824517802556,0.0007057555805154228,-0.0005986829738487962,-0.0005960938099481038,0.0,-0.0098066499999988,9.80665
173,100.691,0.9968847352024922,-0.001250795496181724,0.00045008075454749306,-0.705922108864039,-0.7082882245578213,0.0011425845587372586,-0.0006055217241620593,-0.0005845793908097373,0.0,-0.0098066499999988,9.80665
174,100.747,1.0,-0.0012530924112759566,0.0004485638475486868,-0.7059200997946204,-0.7082902237952793,0.0014028692746531953,-0.0006177951843443603,-0.000584868770106966,0.0,-0.0098066499999988,9.80665
175,100.906,0.9937888198757764,-0.001259614009489939,0.0004442569151770759,-0.7059143954725212,-0.7082959002016331,0.0021418919502002925,-0.000652643044504825,-0.0005856904006115978,0.0,-0.0098066499999988,9.80665
176,100.989,0.990625,-0.0012610863069358706,0.00044442619639165645,-0.705911028284312,-0.7082992533170327,0.0018348665628676046,-0.0006501364628239835,-0.0006091721710794037,0.0,0.017596609879033987,9.849000492540323
177,101.09,0.98125,-0.0012621315296863919,0.0004455661075841891,-0.705906780411215,-0.708303484258369,0.001193622028597851,-0.0006390906534262846,-0.0006466518614381064,0.0,0.06152882016129085,9.916895726612902
178,101.173,0.9937694704049844,-0.001262990475115038,0.0004465028662869635,-0.7059032895848087,-0.7083069611705562,0.0006666586984553856,-0.0006300134041192648,-0.0006774520030200102,0.0,0.09763152762096691,9.972690819959674
179,101.274,0.9968847352024922,-0.0012653394486637404,0.00044655614286026797,-0.7058985328864222,-0.7083116974163914,0.000682800974962966,-0.0006236483560993325,-0.0006416710962112711,0.0,0.055259694444447297,9.90720707777778
180,101.371,0.9937694704049844,-0.0012676079147280804,0.0004465968734744251,-0.7058939596853923,-0.7083162509410584,0.0007046174702866518,-0.0006175803430359965,-0.0006066036631449316,0.0,0.013737093055560104,9.843035784722227
181,101.468,0.9969040247678018,-0.0012690220065132525,0.00044590263827082565,-0.7058894324780245,-0.7083207605529274,0.0007047190563753242,-0.000615886216517538,-0.0005925563513301314,0.0,-0.0098066499999988,9.80665
182,101.611,0.9938080495356038,-0.0012694572989914265,0.00044346030081636445,-0.7058828471399541,-0.7083273239684227,0.0006629474228247994,-0.0006218326312955471,-0.0006124275096226486,0.0,-0.0098066499999988,9.80665
183,101.683,0.990625,-0.0012697173538596081,0.0004423773897988537,-0.7058794599331584,-0.7083306997114194,0.0006441099613439293,-0.0006279475442133869,-0.0006223951673600828,0.0,-0.0098066499999988,9.80665
184,101.848,0.996875,-0.0012711833706291686,0.0004430195313981819,-0.7058701758237268,-0.7083399484874646,0.0006476373001933097,-0.0007083731903694556,-0.0006444418323226268,0.0,-0.0098066499999988,9.80665
185,101.856,0.9968944099378882,-0.0012712544502301167,0.00044305066553633113,-0.7058697256850877,-0.7083403969129699,0.0006478083226829765,-0.0007122726156376267,-0.0006455107615329314,0.0,-0.0098066499999988,9.80665
186,101.967,0.9968944099378882,-0.0012729946013835898,0.0004436947940912256,-0.7058637552905016,-0.7083463429277164,0.0006618626748344715,-0.0007267970168887069,-0.0006611774882244662,0.0,-0.0098066499999988,9.80665
187,102.1,0.9938461538461538,-0.0012766219481593997,0.0004449005683480494,-0.7058571647139485,-0.7083529030442915,0.0007025992946832274,-0.0006632309000730111,-0.0006816581780166936,0.0,-0.0098066499999988,9.80665
188,102.213,0.9969325153374233,-0.001280991460774228,0.0004448247955685011,-0.705851503700506,-0.7083585362208307,0.0007138431844976209,-0.0006427478327555181,-0.0006880483481901026,0.0,-0.0098066499999988,9.80665
189,102.283,0.996969696969697,-0.001285046643188886,0.0004436257009329814,-0.705847932474283,-0.7083620881531972,0.000696338639836612,-0.0006651657066989951,-0.0006804764642028182,0.0,-0.0098066499999988,9.80665
190,102.368,1.0,-0.0012899707932638273,0.00044216965744699345,-0.705843595985298,-0.7083664012139282,0.0006750831213196765,-0.0006923874107732125,-0.0006712820336468316,0.0,-0.0098066499999988,9.80665
191,102.415,0.9875389408099688,-0.001292693558599384,0.0004413645510488587,-0.7058411981619768,-0.708368786082803,0.0006633300699044262,-0.0007074394118495491,-0.0006661980543982256,0.0,-0.0098066499999988,9.80665
192,102.563,0.9968847352024922,-0.0012942062744297925,0.00044189852050805514,-0.7058332724222774,-0.7083766803097394,0.0007170925199321345,-0.0006810919635843822,-0.0006828672490064131,0.0,-0.0098066499999988,9.80665
193,102.643,1.0,-0.001294747378230886,0.00044230737192419535,-0.7058289735442922,-0.7083809625172912,0.0007497088093611138,-0.0006639615278245802,-0.0006931576213662128,0.0,-0.0098066499999988,9.80665
194,102.746,0.9938650306748467,-0.001295983496766024,0.0004429554464962023,-0.7058235011968339,-0.7083864124203545,0.0007558493822557022,-0.000677596302276319,-0.0006942132068612426,0.0,-0.0098066499999988,9.80665
195,102.874,0.9969325153374233,-0.0012978356809345945,0.00044383210635969776,-0.7058167372008765,-0.7083931479494024,0.0007424758572365164,-0.0007154497042468967,-0.00068838153947219,0.0,-0.0098066499999988,9.80665
196,102.955,0.9939577039274925,-0.0012991785857834769,0.00044459611280704903,-0.7058127593121329,-0.7083971084326343,0.0007385959946550423,-0.0007302551306784156,-0.0006799749885685759,0.0,-0.0098066499999988,9.80665
197,103.044,1.0,-0.0013010093947442244,0.0004458707659521711,-0.7058090175879044,-0.708400832298275,0.000743864834774285,-0.0007274953429587189,-0.0006609293823130448,0.0,-0.0098066499999988,9.80665
198,103.147,1.0,-0.001303128196125764,0.00044734592633360464,-0.7058046872778422,-0.7084051419405335,0.0007499624812044202,-0.0007243014313280583,-0.0006388878379948439,0.0,-0.0098066499999988,9.80665
199,103.256,0.9908536585365854,-0.001305888734208597,0.000448666029162325,-0.7057993154948417,-0.7084104880056883,0.0007353932879599622,-0.0006919032816932255,-0.0006492950866582331,0.0,-0.0098066499999988,9.80665
200,103.354,0.9939577039274925,-0.0013085476496991209,0.0004497706311571253,-0.7057942163592851,-0.708415562705631,0.0007151169555138312,-0.0006528671722892824,-0.000670169230483202,0.0,-0.0098066499999988,9.80665
201,103.465,0.9939577039274925,-0.0013108493341772054,0.00045096642327019495,-0.7057887895534424,-0.7084209644074353,0.0007091928994657837,-0.000627241407213102,-0.0006681848080843623,0.0,-0.0098066499999988,9.80665
202,103.547,0.9969788519637462,-0.0013115814376334677,0.0004517743288806937,-0.705785256189909,-0.708424482734813,0.0007280588733956231,-0.0006336622710981628,-0.0006317672875349949,0.0,-0.0098066499999988,9.80665
203,103.667,0.9939577039274925,-0.001312652808545071,0.0004529566297741066,-0.7057800854140062,-0.7084296315065852,0.0007556676157319766,-0.0006430586572714237,-0.0005784733550237193,0.0,-0.0098066499999988,9.80665
204,103.755,1.0,-0.0013157206372851934,0.0004514961623871894,-0.7057753736133637,-0.708434320827259,0.0007632631771266453,-0.0006541651906445609,-0.0005960890185087886,0.0,-0.0098066499999988,9.80665
205,103.842,0.9603658536585366,-0.0013190428637118803,0.00044975728618027816,-0.7057705987604073,-0.70843907265166,0.0007691689522471274,-0.0006656798650510599,-0.0006206908612512029,0.0,-0.0098066499999988,9.80665
206,103.947,0.9969512195121951,-0.0013223237847787197,0.00044850142663927514,-0.705765031386823,-0.7084446137537749,0.0007714146363829816,-0.0006753363995812838,-0.0006422604330711898,0.0,-0.0098066499999988,9.80665
207,104.06,0.9878419452887538,-0.0013225219170659441,0.00045100461676558703,-0.7057599334632247,-0.7084496903638444,0.0007515021942607648,-0.0006663334934273737,-0.0006283235141179629,0.0,-0.0098066499999988,9.80665
208,104.157,0.9939393939393939,-0.001322691995224004,0.00045315337289171303,-0.7057555573695166,-0.7084540481618686,0.0007344092129700133,-0.0006586053350474691,-0.0006163599642200609,0.0,-0.0098066499999988,9.80665
209,104.21,0.9939393939393939,-0.0013229829462745141,0.0004545301175219474,-0.7057528255545813,-0.7084567681230767,0.000732137321028858,-0.0006621379389016074,-0.000627340424296897,0.0,-0.0098066499999988,9.80665
210,104.447,0.9879154078549849,-0.0013237260129140144,0.00046114306997897624,-0.7057404295322539,-0.7084691109517782,0.0007413903018048316,-0.00068580402742558,-0.0006951409167455443,0.0,-0.0098066499999988,9.80665
211,104.502,0.9671641791044776,-0.001322942614981274,0.0004625273532375552,-0.7057382788847542,-0.7084712538520345,0.0007411073323572878,-0.0006778080533867449,-0.0006811531828699969,0.0,-0.0098066499999988,9.80665
212,104.552,0.9909365558912386,-0.0013222304350424187,0.00046378579256353653,-0.7057363237506634,-0.7084732019431765,0.0007408500874049751,-0.0006705389860787104,-0.0006684370611649491,0.0,-0.0098066499999988,9.80665
213,104.683,0.9909365558912386,-0.0011941775067638345,0.0004491893828529132,-0.7057322343663246,-0.7084770456799667,6.164105888453535e-05,0.0005182088166475739,-0.0006536837993189699,0.0,-0.0098066499999988,9.80665
214,104.763,0.9701492537313433,0.0004894555389886863,0.0002126226091785804,-0.7057428803781634,-0.7084633591324327,-0.008985904489643705,0.016125877276062676,-0.0008808443648740626,0.0,-0.0098066499999988,9.80665
215,104.811,0.7115987460815048,0.0014996353664402586,7.068254497397233e-05,-0.7057492679852666,-0.7084551472039123,-0.01441443181876097,0.02549047835171229,-0.0010171407042071264,0.0,-0.0098066499999988,9.80665
216,104.913,0.6112852664576802,0.0036462674997745506,-0.0002309400914607777,-0.705762841650361,-0.7084376968558065,-0.02595005239313355,0.04539025563746495,-0.0013067704252898464,0.0,-0.0098066499999988,9.80665
217,105.026,0.4909090909090909,0.004542154997611864,-0.000536916386163523,-0.7057729352097578,-0.7084228648591081,-0.012142545612464766,0.023356899350941287,-0.0007076240969090273,0.0,-0.00602899105058265,10.388409478210075
218,105.13,0.36033519553072624,0.00517377296066609,-0.0008148559757414238,-0.705781581399271,-0.7084097998844463,0.004025596146858927,-0.002658541252697884,-3.645702170986128e-05,0.0,-0.002060541245134992,10.999550748249003
219,105.244,0.2722222222222222,0.0045973008813131435,-0.0007371507851117684,-0.7057897995365586,-0.7084041466894561,0.013895185986234819,-0.01906384185048533,0.0005346613786654732,0.0,1.3921446070866739e-15,11.367723396296297
220,105.372,0.271523178807947,0.0026678554196181144,-0.0002635081663899093,-0.7057977542451576,-0.7084065585120765,0.01704098472042082,-0.025244713021219774,0.0010096006930916744,0.0,1.4054293917156129e-15,11.476201895061726
221,105.535,0.35294117647058826,0.0005306160476597466,0.00021526772884813842,-0.7058095197409706,-0.7083997770094717,0.015504374831915172,-0.022506697610021144,0.0014219448650255632,0.0,1.3960919673336973e-15,11.399956038800012
222,105.647,0.4472049689440994,-0.0008260158672965309,0.0005007200366321609,-0.7058181763630053,-0.7083916696274777,0.012509079724550277,-0.016913066580891666,0.001637927205301821,0.0,1.3804889877870066e-15,11.272548042
223,105.688,0.5714285714285714,-0.0012756641902293081,0.000580100315700822,-0.7058204045599578,-0.70838932101071,0.011669307527878146,-0.015193651122341672,0.0015881594770914902,0.0,1.3736253824484677e-15,11.216502451195227
224,105.79,0.5561797752808989,-0.002075573915406615,0.000607175190912938,-0.7058195649971002,-0.7083876797695949,0.011321941824756045,-0.01314325238099366,0.0005902272625454899,0.0,1.3487351957807648e-15,11.013258653187243
225,105.941,0.6507936507936508,-0.0032420687312399153,0.0006380128546484372,-0.7058186281152277,-0.7083847937870233,0.010858454633504155,-0.010291638277471035,-0.0007565556766930941,0.0,1.3111258653502276e-15,10.706155164599988
226,106.01,0.6113744075829384,-0.0036893161752044852,0.0006072651288571228,-0.7058196843316008,-0.7083812616245484,0.010892838776111607,-0.009880052119493438,-0.0007387184062972633,0.0,1.2902434293620928e-15,10.53563713439998
227,106.056,0.6359447004608295,-0.003987481137847471,0.0005867666449962509,-0.7058203884758495,-0.7083789068495651,0.010915761537849903,-0.00960566134750843,-0.000726826892700045,0.0,1.2763218053700058e-15,10.4219584476
228,106.194,0.6267281105990783,-0.004865859091670946,0.0005205332657668734,-0.7058221979219783,-0.7083720513302453,0.011109058767557188,-0.008854740470647804,-0.0006934210499748571,0.0,1.2352486911076289e-15,10.086571017599988
229,106.326,0.6233766233766234,-0.005588498191144434,0.00042262362638478845,-0.7058217188702288,-0.7083670167963058,0.012202200919389693,-0.008663432627916341,-0.0006780143352225417,0.0,1.2010066842699453e-15,9.806963812800008
230,106.412,0.5045045045045045,-0.006059308513528779,0.00035883401284796167,-0.7058214067607557,-0.7083637367211633,0.0129143995940686,-0.00853879266977309,-0.000667976627126334,0.0,1.1786974979969043e-15,9.624795482399982
231,106.501,0.5357142857142857,-0.007547521113948486,0.00023427207600866873,-0.7058116516032202,-0.7083559167656406,0.011205604862421562,-0.007984776431694571,-0.0011080027399585095,0.0,-0.0028635417999991336,9.479225569799988
232,106.598,0.5891891891891892,-0.00940861889865051,8.452785859800561e-05,-0.705798766427964,-0.7083463367413735,0.008758950196206526,-0.007279430422931897,-0.0016951764188706969,0.0,-0.006668521999998924,9.330831341999998
233,106.688,0.5764705882352941,-0.010901207333768127,-5.1628527733887996e-05,-0.7057907033850266,-0.708336499777649,0.0060822904855009526,-0.005832794830202614,-0.00209573230007659,0.0,-0.009414383999998674,9.187654251999989
234,106.82,0.6808510638297872,-0.01034235137169819,-0.0002186877388027622,-0.7058245469406292,-0.7083109457289197,-0.002613872051238744,0.005583976589142923,-0.0009907461698167375,0.0,-0.004236472799999069,8.91322495840001
235,106.906,0.7007299270072993,-0.00997824824489497,-0.00032752934601432517,-0.7058465965298855,-0.70829429687899,-0.008279553703964326,0.013022176150233301,-0.0002708309637381918,0.0,-0.0008629851999985925,8.734430115599983
236,106.994,0.7226277372262774,-0.009175572347769948,-0.0004063352590507582,-0.705857130407445,-0.7082936850980076,-0.011047278083860924,0.014491301216185077,-0.00099327064119283,0.0,1.065643150505591e-15,8.701636678
237,107.075,0.751937984496124,-0.008304781557176238,-0.0004688804046041218,-0.7058631358026222,-0.7082981612404057,-0.01266527021303784,0.013959069643169605,-0.0021059210447129644,0.0,1.067588719075914e-15,8.717523451
238,107.146,0.7209302325581395,-0.007541495802458345,-0.0005237039272496591,-0.7058683997909874,-0.7083020847726311,-0.014083510227501463,0.013492545671761013,-0.0030812072008848694,0.0,1.0692940939955798e-15,8.731448894
239,107.296,0.7313432835820896,-0.006040625709180343,-0.0005516622146317524,-0.7058628550958922,-0.7083214939431574,-0.013875381857156687,0.01318993700295686,-0.0027979540713130883,0.0,1.082533568019804e-15,8.839557403600008
240,107.416,0.7185185185185186,-0.004864164036154496,-0.000554966378099953,-0.7058548037092209,-0.708339433758046,-0.013013685107231143,0.013096027500927448,-0.0020628841854631944,0.0,1.0952157927745014e-15,8.9431156276
241,107.484,0.7557251908396947,-0.004249730773618066,-0.000529207848738422,-0.7066969072782701,-0.7074993760345416,-0.013366100654005984,0.012486414827406435,-0.0022043664716184055,0.0,1.1026714036908995e-15,9.003995310799997
242,107.564,0.7404580152671756,-0.0035400349232840014,-0.0004919379262979195,-0.7079010625750076,-0.7062967307416942,-0.013992650970816579,0.01162895522266631,-0.002511494006961569,0.0,1.1115105300350831e-15,9.076172254799996
243,107.652,0.7286821705426356,-0.002759369487916443,-0.00045094101161336213,-0.7092256334014192,-0.7049738209195617,-0.01468185631930831,0.010685749657452066,-0.002849334295839087,0.0,1.121233569013686e-15,9.155566893200003
244,107.716,0.8217054263565892,-0.002263605877634642,-0.0004192324811508967,-0.7096135595827864,-0.7045870435751327,-0.014184854611754479,0.010013372965157067,-0.0031971332542598046,0.0,1.1275746813910346e-15,9.207346005199996
245,107.825,0.732824427480916,-0.0015031517191441137,-0.00036302345962577946,-0.7096037372770521,-0.7045987535476682,-0.012175151161849397,0.008884068939834776,-0.003908451505005397,0.0,1.1375235024012555e-15,9.288584293800003
246,107.935,0.7575757575757576,-0.000747223338043083,-0.0003077548143834253,-0.7095951176463047,-0.7046091593071296,-0.010141914483159684,0.007740748092532103,-0.004314525043591668,0.0,1.147395461443265e-15,9.369194956800001
247,108.091,0.8095238095238095,8.479340326397983e-05,-0.00025975810948761897,-0.7096098707358331,-0.7045944590386923,-0.007152082961052719,0.0060430146604776745,0.0016154712904243402,0.0,1.1578871201039694e-15,9.454865851199997
248,108.176,0.7398373983739838,0.0005381358584634074,-0.00023360605874310524,-0.7096179092782045,-0.7045864492770437,-0.0055230080932377875,0.0051179675981401895,0.00484655903652328,0.0,1.1636037289896105e-15,9.501545505200003
249,108.227,0.8571428571428571,0.000700155352221777,-0.0002165936893674378,-0.7096161286403123,-0.7045880479189183,-0.005331489057150239,0.004574627949451723,0.0047308049031136055,0.0,1.166082757131628e-15,9.521788306175301
250,108.356,0.7647058823529411,0.0010986142707377462,-0.0001734260060272006,-0.7096109428927927,-0.7045927527512493,-0.004928198561398888,0.003201504994881409,0.004225915416600243,0.0,1.172255064090746e-15,9.572189017330675
251,108.476,0.8412698412698413,0.0013489004442255122,-0.00013078256954694235,-0.7095904877752931,-0.704613011708724,-0.004203881293535263,0.0018519788107369457,0.0024206804689020874,0.0,1.1773283941881608e-15,9.6136159014
252,108.59,0.8943089430894309,0.0014090576844400342,-8.660099011082363e-05,-0.7095479911288985,-0.7046556926610521,-0.0030005782693624354,0.00046339183463713334,-0.0012649693470448697,0.0,1.1811618848526492e-15,9.6449187282
253,108.655,0.7642276422764228,0.0014433578652641014,-6.140973867795076e-05,-0.7095237605849016,-0.7046800282917653,-0.0023144844397902584,-0.00032834635348989467,-0.0033664363473653496,0.0,1.1833476470736294e-15,9.6627668312
254,108.757,0.8174603174603174,0.0013825315435591844,-5.613448812553965e-05,-0.709529088728052,-0.7046747794994361,-0.000810843380168033,-0.0012496300069615486,-0.0013938839361070546,0.0,1.1856535061199383e-15,9.681595599200001
255,108.844,0.7851239669421488,0.0013005608084897772,-6.062517670896247e-05,-0.7095450106265491,-0.7046589028293075,0.0005837377393616951,-0.0019511506624984845,0.0016717269085344847,0.0,1.1873252539285119e-15,9.695246455999998
256,108.93,0.7768595041322314,0.0012177772141434358,-6.444981624041125e-05,-0.7095605900742326,-0.7046433707825281,0.0019639822756872425,-0.002656056340783927,0.004645331072853775,0.0,1.1889729823720205e-15,9.7087011798
257,109.074,0.65625,0.0008293740794188759,1.659551951916411e-05,-0.7095639841314131,-0.7046404392919507,0.004516058689914573,-0.0054657748900353124,0.001544598109321755,0.0,1.1910482555136982e-15,9.725647071
258,109.179,0.6641221374045801,0.0005461634603488563,7.569107684386031e-05,-0.7095664589647739,-0.704638301746738,0.006376947741955519,-0.007514527998864651,-0.0007163530099205664,0.0,1.1925614755128384e-15,9.73800345
259,109.256,0.7913043478260869,0.0002773549531218638,8.924825287025605e-05,-0.7095616500564925,-0.7046431841816806,0.006492810120806095,-0.006823395404964702,-0.0008679518538992808,0.0,1.1933012719568624e-15,9.7440443464
260,109.37,0.8260869565217391,-0.00012062127835708457,0.00010931991607816783,-0.7095545303741018,-0.7046504127217253,0.0066643466297537125,-0.005800160136073805,-0.0010923968956340147,0.0,1.194396555003859e-15,9.752988011200001
261,109.473,0.8181818181818182,-0.0004717641683830419,0.00012095860030640321,-0.7095464298331261,-0.7046584476637044,0.006758187316358089,-0.005156480997800835,-0.0014436603356152602,0.0,1.1951747824319883e-15,9.7593427204
262,109.535,0.7272727272727273,-0.000676325749713509,0.00012272097592654522,-0.7095402075792523,-0.7046644980964049,0.0067653215713798995,-0.004995689623057856,-0.0017749422397464218,0.0,1.195472622558803e-15,9.7617747696
263,109.671,0.7310924369747899,-0.0011250414765029706,0.00012658683212556687,-0.7095265587643034,-0.704677770013296,0.00678097090497613,-0.004642985962331284,-0.0025016251262277595,0.0,1.1961259492885908e-15,9.7671095872
264,109.766,0.7647058823529411,-0.001450253938839071,0.00012759407944789084,-0.7095324480149509,-0.7046711418919901,0.006966025773435838,-0.00513385541178288,-0.0008564738985150408,0.0,1.1965823172248394e-15,9.7708361142
265,109.877,0.7622950819672131,-0.0018315037500321405,0.00012858905284825187,-0.7095409862397185,-0.7046616892566423,0.007200955767184482,-0.005786607783287724,0.0012970502171664134,0.0,1.1971155471292981e-15,9.7751902668
266,109.975,0.7863247863247863,-0.0021668897227028433,0.00011703869203555598,-0.7095397857864225,-0.7046619591265303,0.006918350528528766,-0.005973286949647763,0.00205271528627285,0.0,1.1975917605737323e-15,9.779078844672132
267,110.092,0.7478260869565218,-0.0025656624950835118,8.647505042914946e-05,-0.7095265588286395,-0.7046739087218478,0.005919621911922832,-0.005670321204501105,0.001408724203757334,0.0,1.1981676346951849e-15,9.783781213729508
268,110.186,0.808695652173913,-0.002874666091432335,5.7841653829819656e-05,-0.7095179437180636,-0.7046814877395529,0.005152384660505019,-0.00534936220174127,0.0009548976495352664,0.0,1.1985663167792674e-15,9.7870367
269,110.233,0.7711864406779662,-0.0029937212077169443,3.082044126959216e-05,-0.7095199033072972,-0.7046789794614375,0.004878303265286364,-0.004947282672219425,0.0009260231126972932,0.0,1.1985663167792674e-15,9.7870367
270,110.347,0.8275862068965517,-0.003282493191896628,-3.4720372174362326e-05,-0.7095246563535232,-0.7046728955528176,0.00421351009390496,-0.003972025941038803,0.0008559870020690194,0.0,1.1985663167792674e-15,9.7870367
271,110.444,0.7327586206896551,-0.003508205747271974,-8.864911462375917e-05,-0.7095258853051927,-0.7046706299743817,0.0035177000396628914,-0.0030974126504400186,0.0008466378238378661,0.0,1.19863808779042e-15,9.787622754780877
272,110.59,0.7647058823529411,-0.0036833996519897777,-0.00015469319110129803,-0.7095045702187414,-0.7046911728202935,0.0013994785805837872,-0.0014124477246917416,0.0012459738436989827,0.0,1.1993366589656382e-15,9.79332702131474
273,110.713,0.8608695652173913,-0.003799852973710593,-0.0002005685526039389,-0.7094949605610618,-0.7047002348624971,2.3257765686167137e-05,-0.0003700710840057595,0.0011719159327914334,0.0,1.1997672850325534e-15,9.79684335
274,110.785,0.8636363636363636,-0.003818304782626709,-0.00021183384619906528,-0.7095026618974416,-0.7046923773585816,-0.00013049029395913384,-0.00036199916037730985,0.0004732454952319214,0.0,1.1997672850325534e-15,9.79684335
275,110.83,0.9363636363636364,-0.0038298371631992813,-0.00021887465469601927,-0.7095074752326791,-0.7046874664186343,-0.00022658283123744695,-0.0003569542081095288,3.657647175722657e-05,0.0,1.1997672850325534e-15,9.79684335
276,110.946,0.9230769230769231,-0.0038507104850269225,-0.00023591620689529974,-0.7095207644609122,-0.7046739676255873,-0.00045691474471082523,-0.000403485206642427,-0.0009016705907770929,0.0,1.1997672850325534e-15,9.79684335
277,111.072,0.8928571428571429,-0.003813271234399545,-0.00024690428176793943,-0.709541183766593,-0.704653606079418,-0.0005891591609431988,-0.0008582034847754423,-0.0006486582974271841,0.0,1.1997672850325534e-15,9.79684335
278,111.166,0.8928571428571429,-0.003785340364883885,-0.0002551017344507016,-0.7095564172168629,-0.7046384157195774,-0.0006878176936879754,-0.0011974377557635307,-0.00045990309445187433,0.0,1.1997672850325534e-15,9.79684335
279,111.271,0.9035087719298246,-0.003704755303924236,-0.00022851892847590153,-0.7095572195894098,-0.7046380374769832,-0.0013669302116923808,-0.0004169905913228687,-0.0006556044655370458,0.0,1.2002467590500248e-15,9.800758552471482
280,111.375,0.8421052631578947,-0.0036249377197356348,-0.00020218929208181506,-0.7095580143203133,-0.7046376628366993,-0.002039574991430047,0.0003560237429802279,-0.0008494420140404449,0.0,1.2007216666482825e-15,9.80463646730038
281,111.458,0.8333333333333334,-0.003536738427115712,-0.00018106853823427846,-0.7095592640056817,-0.7046368514286333,-0.002412035186548688,0.0010472174540933441,-0.00042604541534053476,0.0,1.2009682532858392e-15,9.80665
282,111.592,0.8536585365853658,-0.0033206955548469525,-0.00014664626480202873,-0.7095631316921791,-0.7046340010023355,-0.0025192459468243674,0.0023863898131966073,0.001995394737329738,0.0,1.2009682532858392e-15,9.80665
283,111.703,0.8292682926829268,-0.003145276818038492,-0.00011509180021011047,-0.7095670889432124,-0.7046308454413156,-0.0023886301197344776,0.002902220919728341,0.003265868104528689,0.0,1.2009682532858392e-15,9.80665
284,111.783,0.8,-0.0030286165202401327,-8.39655654721746e-05,-0.7095720186051645,-0.7046263806090648,-0.0016894200552488234,0.0016374370306731156,0.0021537771965377804,0.0,1.2009682532858392e-15,9.80665
285,111.907,0.8260869565217391,-0.002847793058652679,-3.5719901628374854e-05,-0.7095796595811903,-0.7046194601190762,-0.000605644455296078,-0.00032297799736244947,0.0004300362891519016,0.0,1.2009682532858392e-15,9.80665
286,112.011,0.8220338983050848,-0.0026957286427272873,-1.4937701401559027e-05,-0.7095793935506105,-0.7046203143924432,0.00047049125155887634,-0.0006344182230532242,-0.0003711226987651818,0.0,1.2009682532858392e-15,9.80665
287,112.078,0.8347826086956521,-0.0025976897923487537,-5.149574011965399e-06,-0.7095780011844105,-0.7046220827893177,0.001194349998375359,-0.0005912527348846223,-0.0007693449342623122,0.0,1.2009682532858392e-15,9.80665
288,112.152,0.8434782608695652,-0.0024894080770053134,5.6611935526589455e-06,-0.7095764633471151,-0.7046240359440744,0.0019938357784412175,-0.0005435774195939342,-0.0012091724779456508,0.0,1.2009682532858392e-15,9.80665
289,112.282,0.8434782608695652,-0.0023514792045649918,1.4905802267251791e-05,-0.7095749720601919,-0.7046260112707606,0.0009232202056706721,0.00015794458597084956,-0.0005488099392885685,0.0,1.2009682532858392e-15,9.80665
290,112.321,0.7964601769911505,-0.0023144072526959216,1.6876467684547034e-05,-0.7095746243474557,-0.7046264839718499,0.00039820231817087534,0.00041927620544127847,-0.00023268673257593087,0.0,1.2009682532858392e-15,9.80665
291,112.51,0.8938053097345132,-0.00208742945710812,6.610413522937619e-06,-0.7095732890248247,-0.7046285242175166,-0.0010353260593807907,0.0018630968147065195,0.0003507259750341665,0.0,1.2009682532858392e-15,9.80665
292,112.582,0.7786885245901639,-0.0019769254519556704,-7.365836673541753e-06,-0.7095729579796489,-0.7046291741973085,-0.0010172217830169633,0.0025032150792884582,9.116561655738396e-05,0.0,1.2009682532858392e-15,9.80665
293,112.706,0.7706422018348624,-0.0018036533203983848,-3.1772636712060964e-05,-0.7095715119815571,-0.7046311165693524,-0.0006448020264506842,0.0030107393432409098,-0.00022572782682255476,0.0,1.2010931539841808e-15,9.8076698916
294,112.79,0.7981651376146789,-0.0017297853282812604,-4.916571097248729e-05,-0.7095682960453541,-0.7046345336807174,0.00047878786921500406,0.0018355540838092645,-0.00010813737520948155,0.0,1.201496679317285e-15,9.810964925999999
295,112.827,0.8695652173913043,-0.0016972482365153925,-5.682694606338741e-05,-0.7095668795020266,-0.704636038836914,0.0009737024661152401,0.0013179129576311724,-5.634158104659355e-05,0.0,1.2016744226187711e-15,9.8124163102
296,112.978,0.8828828828828829,-0.0015890204066149397,-7.829043432567789e-05,-0.7095634931207199,-0.7046397070853442,0.002449135772883867,-0.00021866742707786474,0.000187509260605995,0.0,1.201938635634494e-15,9.8145737732
297,113.073,0.9009009009009009,-0.0015540849453700106,-7.856012795038001e-05,-0.7095645954552732,-0.704638674393818,0.0026424965513869845,-0.0004078350130002676,0.0003847580570727306,0.0,1.2014822676982456e-15,9.8108472462
298,113.187,0.8017241379310345,-0.0015138333620290235,-7.752281341149397e-05,-0.709565693344431,-0.704637657974072,0.00285007426887752,-0.0006524025078396829,0.0005181953941938704,0.0,1.2009682532858392e-15,9.80665
299,113.295,0.8290598290598291,-0.0014998979410785198,-5.683194619939276e-05,-0.7095634764491824,-0.7046399216081798,0.002692585885524757,-0.001138480514055095,-0.0008507369563448525,0.0,1.2009682532858392e-15,9.80665
300,113.419,0.753731343283582,-0.0014838980133205352,-3.3075765326241337e-05,-0.7095609311250082,-0.7046425205954888,0.002511765889823451,-0.0016965700767468221,-0.0024224740995558588,0.0,1.2009682532858392e-15,9.80665
301,113.552,0.9365079365079365,-0.0014502220446936315,-6.516209694988541e-05,-0.709557361256749,-0.7046461816783134,0.0021438043955713513,-7.744504138827496e-05,-0.0028789910748600956,0.0,1.2009682532858392e-15,9.80665
302,113.593,0.8571428571428571,-0.0014393817051193119,-7.665343404324835e-05,-0.7095562374288121,-0.7046473345605057,0.0020255358591675853,0.0004833250585943008,-0.002985553664155296,0.0,1.2009682532858392e-15,9.80665
303,113.669,0.9375,-0.0014192874171278902,-9.795444914314042e-05,-0.7095541542355636,-0.7046494716104229,0.0018063063770532893,0.001522801341488822,-0.0031830843174829823,0.0,1.2009682532858392e-15,9.80665
304,113.775,0.8923076923076924,-0.001423128866589102,-0.00012219691088758222,-0.7095520783825867,-0.7046515500728177,0.0021675199316814496,0.0005359127954580021,-0.002680040455888963,0.0,1.2009682532858392e-15,9.80665
305,113.829,0.8731343283582089,-0.0014269656139098393,-0.00013422437072550773,-0.7095510698114196,-0.7046525556963659,0.0023908776519819546,-0.00011057467060147735,-0.002377848597709164,0.0,1.2009682532858392e-15,9.80665
306,113.96,0.8760330578512396,-0.0014462255298201784,-0.0001604435790706245,-0.7095494736146016,-0.7046541179961918,0.002848011208698136,-0.001465640645474132,-0.00213005385361598,0.0,1.2009682532858392e-15,9.80665
307,114.059,0.9008264462809917,-0.0014861019952502011,-0.00017273081172096,-0.7095504312904735,-0.7046530666536064,0.002977938461117434,-0.0019470940581522433,-0.0031775265005416177,0.0,1.2009682532858392e-15,9.80665
308,114.151,0.9504132231404959,-0.0015231589126195133,-0.00018414925014349336,-0.7095513212518898,-0.7046520896483754,0.003098678938113139,-0.0023945053103379393,-0.004150935424957312,0.0,1.2009682532858392e-15,9.80665
309,114.217,0.8983050847457628,-0.0015604057075848498,-0.0001801901612630671,-0.7095530258227745,-0.7046502906373134,0.0028243544045836416,-0.002454408448189515,-0.004255938936024948,0.0,1.2009682532858392e-15,9.80665
310,114.393,0.8596491228070176,-0.0016820160477216835,-0.00014423678968242016,-0.7095597996326146,-0.704643198113101,0.0013384195510298532,-0.0020684990994632385,-0.0032958736307919356,0.0,1.2009682532858392e-15,9.80665
311,114.469,0.868421052631579,-0.0017235652344147986,-0.00013040405070156267,-0.7095631461719001,-0.7046397322961222,0.0010822632128694555,-0.0017643034519961812,-0.0022265477807344182,0.0,1.2009682532858392e-15,9.80665
312,114.645,0.9385964912280702,-0.0017956953439769953,-0.00010208899141573845,-0.7095718220680576,-0.7046308204911883,0.0013360087017225846,-0.0007576422199105186,0.0016882966632796224,0.0,1.2009682532858392e-15,9.80665
313,114.661,0.8828828828828829,-0.0018022526266644697,-9.951489511702633e-05,-0.7095726107858901,-0.7046300103271034,0.0013590764734365127,-0.0006661275624481561,0.0020441916127355597,0.0,1.2009682532858392e-15,9.80665
314,114.789,0.918918918918919,-0.001827807285607458,-0.00010493083742056761,-0.7095827936415494,-0.7046196890964581,0.0018223477861403674,-0.0006251348820587173,0.00282455075445564,0.0,1.2015082235082467e-15,9.811059191472868
315,114.849,0.8879310344827587,-0.0018384814391905879,-0.00010873075872793403,-0.7095877546677313,-0.7046146648166745,0.002053022174374039,-0.0006394331472521555,0.003090122097366793,0.0,1.2017875184508712e-15,9.813339807751937
316,114.976,0.853448275862069,-0.0018709983217149945,-0.00010284693560575838,-0.7095943176940243,-0.7046079697679143,0.0021687712380662485,-0.0007694415689911731,0.003135692481882858,0.0,1.2019530472535334e-15,9.814691453
317,115.075,0.875,-0.0019104418414954152,-7.847742800615819e-05,-0.7095938401998152,-0.7046083469951914,0.0017298581842332835,-0.0010124699794687461,0.0024374628234654283,0.0,1.2014774638252323e-15,9.8108080196
318,115.158,0.9732142857142857,-0.0019435106510082912,-5.804642668528241e-05,-0.7095934398763873,-0.7046086632564438,0.0013618805734440514,-0.0012162210710812452,0.0018520783623680202,0.0,1.2010787423651415e-15,9.8075522118
319,115.312,0.8421052631578947,-0.001974020438593129,-5.905281947362961e-05,-0.7096145378468096,-0.7045873303947525,0.0016165017504245049,-0.0011951235872693356,0.0027609307188540717,0.0,1.2009682532858392e-15,9.80665
320,115.379,0.9210526315789473,-0.001984937930849173,-6.246316834987973e-05,-0.7096253851485589,-0.7045763748716719,0.00179888029024007,-0.0011554561965167473,0.0033087285123766085,0.0,1.2009682532858392e-15,9.80665
321,115.453,0.9357798165137615,-0.001993393144953661,-6.389788168352156e-05,-0.7096373467373206,-0.704564303764518,0.001869186855852586,-0.0010137259829789114,0.0037749008201062783,0.0,1.2009682532858392e-15,9.80665
322,115.564,0.8348623853211009,-0.001993302006550141,-5.7782162109971073e-05,-0.7096552217101318,-0.7045463000028601,0.0015097438413649942,-0.0004539651833474855,0.003981844231486312,0.0,1.2009682532858392e-15,9.80665
323,115.651,0.9272727272727272,-0.0019932305737473816,-5.298876028205251e-05,-0.7096692318239568,-0.7045321889464257,0.001228018235415224,-1.523374579847389e-05,0.0041440431214869,0.0,1.2009682532858392e-15,9.80665
324,115.777,0.9107142857142857,-0.002013789010817024,-7.940216372791532e-05,-0.7096556088725041,-0.7045458481212146,0.0021562063992023855,-0.0003548453841358605,0.0028163840137421558,0.0,1.2009682532858392e-15,9.80665
325,115.835,0.9230769230769231,-0.0020262246150471726,-9.63588870239377e-05,-0.7096444595656212,-0.70455704034274,0.002775679582729897,-0.0006514297984540274,0.0019804652007297204,0.0,1.2009682532858392e-15,9.80665
326,115.991,0.8403361344537815,-0.0020625899499396453,-0.00014557337196236246,-0.7096256765441138,-0.7045758451116381,0.0038018079940229654,-0.0010910332389175873,0.0005895757116377352,0.0,1.2009682532858392e-15,9.80665
327,116.084,0.8782608695652174,-0.0020870524619635566,-0.00017835305764367007,-0.7096251665998148,-0.7045762786661371,0.0038030378986150027,-0.0010115261431783388,0.000578261130722239,0.0,1.2009682532858392e-15,9.80665
328,116.163,0.9217391304347826,-0.002107832445295694,-0.00020619816698585276,-0.7096247334213243,-0.7045766469543674,0.003804082656279206,-0.0009439878575503831,0.0005686498200520875,0.0,1.2009682532858392e-15,9.80665
329,116.282,0.784,-0.0021213048420363183,-0.0002152113237347881,-0.7096177772157147,-0.7045836101889916,0.003067990527488298,-0.0010668585053645063,-0.0012823323684278709,0.0,1.2009682532858392e-15,9.80665
330,116.382,0.832,-0.0021299560469809336,-0.00021785360240387649,-0.709610987605108,-0.7045904213977543,0.002338950750417952,-0.0012037487211637307,-0.0031128197640647643,0.0,1.2009682532858392e-15,9.80665
331,116.484,0.9279279279279279,-0.0021293054750085956,-0.00021026161717493477,-0.7096120595379137,-0.704589345846135,0.0016911841409746708,-0.0008438438777812049,-0.0033037722343579297,0.0,1.2009682532858392e-15,9.80665
332,116.564,0.990990990990991,-0.0021219248525252764,-0.00019684772770052725,-0.7096186992994278,-0.7045826846477758,0.0012526375467423593,-0.00019934418099004647,-0.00223813245538628,0.0,1.2009682532858392e-15,9.80665
333,116.661,0.925,-0.002112975847764251,-0.00018058338671280636,-0.7096267500102635,-0.7045746079447653,0.0007208998012356242,0.0005821117013693176,-0.0009460442233830161,0.0,1.2009682532858392e-15,9.80665
334,116.743,0.9166666666666666,-0.0010607901154056727,-0.000996084236919999,-0.709620697618053,-0.7045785554046011,-0.001307070271744546,0.022437621736378307,-0.0005755608519205384,0.0,1.2009682532858392e-15,9.80665
335,116.853,0.680327868852459,0.0008027173594516864,-0.0024488902931029074,-0.7096070144473307,-0.7045885135261628,-0.004710565057009696,0.06092765983620596,-0.00039091444967605807,0.0,1.2009682532858392e-15,9.80665
336,116.966,0.6991869918699187,0.003932560324775837,-0.004905891171626701,-0.7095825986814517,-0.7045708380302076,-0.008576945203494519,0.09775846729795414,2.9335909777331286e-05,0.0,1.2014602161847754e-15,9.810667181927709
337,117.084,0.6511627906976745,0.01015013920426589,-0.00981199099716312,-0.7095319670975921,-0.7044846729107705,-0.013512302399519623,0.1296460998345581,0.0010276182370455027,0.0,1.2031676168340253e-15,9.824609166265061
338,117.178,0.6524822695035462,0.015103125769282692,-0.013720240010725481,-0.7094916334629922,-0.7044160329003715,-0.017443858131945843,0.1550481121942221,0.001822860090970883,0.0,1.204527749554614e-15,9.835715492771085
339,117.278,0.6289308176100629,0.020344593105513932,-0.017828441063066587,-0.7093882679484912,-0.7042512494500599,-0.014979823522033073,0.13337904903741946,0.0023286006522424117,0.0,1.2059579904334197e-15,9.847394295833334
340,117.404,0.5402298850574713,0.026947763779865387,-0.02300284500436882,-0.7092556714317254,-0.7040400464163288,-0.011616130389036894,0.10417852867099248,0.002952574087964636,0.0,1.2077594428133482e-15,9.862104270833333
341,117.482,0.5368421052631579,0.029748126011089147,-0.025206738843053144,-0.7091708457710485,-0.7039503390507942,-0.009322801741826417,0.08628329174483695,0.0024876681409831823,0.0,1.2084213209753482e-15,9.86750891617647
342,117.577,0.5641025641025641,0.032230892564361645,-0.027170640104918906,-0.7090655558852996,-0.7038706609154655,-0.0063775200240254026,0.06461847924134503,0.0013078866377786902,0.0,1.2089006990596431e-15,9.871423335294118
343,117.692,0.5538461538461539,0.03498172645438217,-0.029331357981364912,-0.7089487244846492,-0.7037798825353977,-0.0033996192706299633,0.042360449145580674,7.243398791149746e-06,0.0,1.2095682903179894e-15,9.876874631609194
344,117.769,0.47417840375586856,0.036060466099952976,-0.030128818599318794,-0.708902341776525,-0.7037361063415699,-0.0031663386001326553,0.039349132228171664,-0.0004814517255194601,0.0,1.2102769076015374e-15,9.882660930842912
345,117.854,0.5544554455445545,0.037251282591816565,-0.031009132268488455,-0.7088511400857386,-0.7036877819717601,-0.0029088209768564667,0.036024951215448214,-0.0010209203692388377,0.0,1.2110591474599994e-15,9.889048404022988
346,117.964,0.5721925133689839,0.03859328263454731,-0.03203184738355887,-0.7087976268147815,-0.703626110468537,-0.0017836126722396398,0.028872957825661155,-0.0011225256770849698,0.0,1.2117769675654117e-15,9.89490985
347,118.052,0.6042780748663101,0.039278722310824396,-0.032622816514274226,-0.7087796742922813,-0.7035784618031939,0.0006608568690718484,0.01759364455938281,-4.057528451079724e-05,0.0,1.2117769675654117e-15,9.89490985
348,118.164,0.5943396226415094,0.04015110008063148,-0.03337495904427548,-0.7087568256272809,-0.7035178180473027,0.0037719999216496757,0.0032381549477578098,0.0013364524878561408,0.0,1.2117769675654117e-15,9.89490985
349,118.244,0.5970149253731343,0.03982395739700328,-0.03314115226681375,-0.7087599364477727,-0.7035439013654325,0.004138761695474391,-0.005607861965894447,0.0016230644723400453,-0.0024320491999999063,1.2123726478190415e-15,9.8997739484
350,118.36,0.5608465608465608,0.03894956763187435,-0.03247754465514531,-0.7087726270860719,-0.7036109374586704,0.003889467667788273,-0.017841904222964954,0.0017452460555359714,-0.006982334799999893,1.2134871463580908e-15,9.9088745196
351,118.465,0.65,0.03826462997015053,-0.031919400753262786,-0.7089990703757797,-0.7034461032183266,0.0008204704504458991,-0.022141028289683035,0.017954241580796112,-0.00980665,1.214337431881417e-15,9.915817627800001
352,118.564,0.5895953757225434,0.03783799103039169,-0.03148065218658417,-0.7096547694011737,-0.7028267746685072,-0.00792231852933683,-0.012257770080120283,0.06635371762234267,-0.00980665,1.2148130153097182e-15,9.9197010612
353,118.684,0.6114649681528662,0.0373317037041451,-0.030966755910764178,-0.7106011495864334,-0.7019161741502659,-0.018099371982048806,-0.00037750611137398154,0.12431576601656245,-0.009884790637450016,1.2153798723252691e-15,9.9243298
354,118.774,0.856,0.0374321353373908,-0.03137430116617776,-0.7180189465610983,-0.6941576821378825,-0.007135368438356318,0.004132341241938823,0.13663604698214357,-0.013401119322709047,1.2153798723252691e-15,9.9243298
355,118.861,0.6370967741935484,0.03752921924952831,-0.03176826157974422,-0.7251894836366077,-0.6866578065259121,0.003463168320546422,0.0084918603501412,0.14854565191553865,-0.016800237051792774,1.2153798723252691e-15,9.9243298
356,118.964,0.6129032258064516,0.03754513722673978,-0.03239167555671292,-0.7321176264842422,-0.6793592146444627,0.012196898568855481,0.011409650898976328,0.14618760112478854,-0.018392391767068576,0.001220908232932639,9.925550708232931
357,119.064,0.6538461538461539,0.037337307131949105,-0.033350958694254536,-0.7353237725097348,-0.6758372847362594,0.012076019257097613,0.009183562725378715,0.1067867122111835,-0.014453978112450252,0.005159321887550965,9.929489121887551
358,119.171,0.7087378640776699,0.03711492893052304,-0.03437739165142425,-0.7387543487570125,-0.6720688197344811,0.01194667839351667,0.006801648379628833,0.06462776107361834,-0.01023987550200787,0.009373424497993346,9.933703224497993
359,119.254,0.6699029126213593,0.03701421685959302,-0.03474515855580919,-0.7400686416637269,-0.6706085151615845,0.0099654183333435,0.004941212126532493,0.05144765674771049,-0.012619712948207224,0.009806650000001218,9.936949512948207
360,119.362,0.7087378640776699,0.03689744071883845,-0.03513852719469223,-0.741511066929592,-0.6689991767370933,0.007013473329524178,0.0025178622955317857,0.03817864692959311,-0.016839307370517503,0.009806650000001218,9.941169107370518
361,119.452,0.6666666666666666,0.036812024690086806,-0.035416159499433865,-0.7425842662039936,-0.6678014281074356,0.004841402914547221,0.0007456820953757875,0.027958923621649905,-0.0196133,0.009806650000001218,9.945439697188755
362,119.564,0.6396396396396397,0.036761055678147525,-0.035528329549022596,-0.7433207441323564,-0.6669775936665088,0.003477125590383009,-0.00030978274135184784,0.019136990356936938,-0.0196133,0.00980665000000122,9.954261743775099
363,119.662,0.6106194690265486,0.03671645779270065,-0.03562647834241275,-0.7439651623196739,-0.6662567385306977,0.0022833829317391078,-0.0012333144734886958,0.011417798750311691,-0.0196133,0.00980665000000122,9.961981034538153
364,119.727,0.6095238095238096,0.03665614048185862,-0.0356445809604704,-0.7442690579145824,-0.6659197016036987,0.0019274071161635177,-0.0023109715851024116,0.009715776145458217,-0.0196133,0.011571847000001287,9.9635564
365,119.844,0.5523809523809524,0.03652297965778402,-0.03563956881582553,-0.744717250280319,-0.6654259001553605,0.0016352844676003062,-0.004622842829674322,0.009386414960026764,-0.0196133,0.0161613592000009,9.9635564
366,119.961,0.4537037037037037,0.036167278039412915,-0.03542913222042992,-0.7451247303306535,-0.6649999678843342,0.0011656176124234066,-0.010194297814741248,0.00845065036602327,-0.020750871399999857,0.01847572860000136,9.9635564
367,120.055,0.37962962962962965,0.03533895500313214,-0.034759246804674265,-0.7453528524480145,-0.6648232282627333,0.0003554326656739757,-0.022617245940492175,0.006220451934263002,-0.024438171800000182,0.014788428200001036,9.9635564
368,120.164,0.3488372093023256,0.03437845275893435,-0.03398246478002153,-0.7456173770309119,-0.6646182855100258,-0.0005840371130034269,-0.03702257940545669,0.0036343707740307063,-0.028713871199999973,0.010512728800001247,9.9635564
369,120.265,0.559322033898305,0.0327551703676749,-0.03259330585776596,-0.7458435656736586,-0.6645106972213232,0.00062961988719291,-0.043876222645243004,0.002557856055708342,-0.02941995,0.01303661805555677,9.953866495833333
370,120.35,0.5932203389830508,0.03125520983695804,-0.03130204014349842,-0.7460304690850895,-0.6644351757132889,0.0020314017892814388,-0.04845882952213262,0.00189275108277802,-0.02941995,0.0163444166666677,9.9439431
371,120.448,0.5,0.029509163022879648,-0.029793714333975846,-0.746241241110495,-0.6643519160277428,0.003178798981631876,-0.052665195341809315,0.0012016239076718328,-0.02941995,0.020164677911647614,9.933033694176707
372,120.578,0.5657894736842105,0.027060214871503653,-0.02763709366555374,-0.7464832962599949,-0.6642718112735002,0.0009697910863906145,-0.049672149301293385,0.0008873306467276441,-0.02941995,0.02528461566265182,9.9227938186747
373,120.644,0.5038167938931297,0.025816902733112806,-0.026542193941585634,-0.7466061857974332,-0.6642311427059617,-0.00015170522965490818,-0.04815260284995458,0.0007277663757867542,-0.02941995,0.02788396867470001,9.917595112650604
374,120.805,0.5352112676056338,0.023099544031885848,-0.024100707027862753,-0.7467938944880712,-0.6642115094559975,-0.00037637679791078013,-0.045056873917579655,0.00014501977013424633,-0.02941995,0.01984865960000122,9.9001662144
375,120.844,0.5409836065573771,0.022465738327158567,-0.023527055160529706,-0.7468306862395936,-0.6642129154303912,-0.00023635055846539283,-0.044354293674230806,-1.112684025423498e-05,-0.02941995,0.01678898480000222,9.895576702200001
376,120.956,0.5240384615384616,0.02066002633240037,-0.021914761613535918,-0.7469370762246547,-0.6642106019943086,0.0003495547387282848,-0.042474838733673144,-0.00036487670708447217,-0.030322161799999848,0.011611073600000908,9.8832987764
377,121.016,0.5445544554455446,0.019722631009670064,-0.021123829697810508,-0.7469955874976905,-0.664196196928873,0.001044402315979805,-0.04175449752807619,-0.0003581339968368362,-0.03267575779999994,0.016318265600001085,9.8785915844
378,121.163,0.6021505376344086,0.017426012468981032,-0.019186046504283443,-0.7471389401166282,-0.6641609045185557,0.002746778880245865,-0.03998966157436383,-0.00034161435673012955,-0.0384420679999996,0.027850886000000404,9.867058964
379,121.229,0.5869565217391305,0.016502115232962213,-0.018383707632872625,-0.7471932265346944,-0.6641453537818265,0.0024645208530128864,-0.03853253695368787,0.0003327449308707228,-0.037422176400000305,0.029419950000001208,9.861881052800001
380,121.362,0.6187845303867403,0.014734278861597352,-0.016826176727789906,-0.7472937937919019,-0.6641142750118841,0.0009787550512702632,-0.03501378808915647,0.002276024461956521,-0.03220503860000048,0.029419950000001208,9.851446777200001
381,121.444,0.7124183006535948,0.013667059617038485,-0.015888851201526347,-0.7473514118194147,-0.6640979295439365,0.00019384636733756698,-0.03288566314292206,0.0033316349477640196,-0.02941995,0.029419950000001208,9.844996002857144
382,121.564,0.6601307189542484,0.01231992820273332,-0.0147339967327229,-0.7473943036086809,-0.6641006072277815,0.0002837862410791608,-0.03016171658373629,0.0035304057944033716,-0.02941995,0.029419950000001204,9.83538948857143
383,121.677,0.5609756097560976,0.011051379454262369,-0.013646508774599435,-0.7474346933769066,-0.6641031287134022,0.0003684796221858455,-0.02759666690716917,0.0037175816749888,-0.02941995,0.0294199500000012,9.826343354285715
384,121.759,0.5865921787709497,0.010310741366253966,-0.012989046386394426,-0.7474574954065296,-0.6641010618001397,0.001568514168919886,-0.0260172053514158,0.0024803144268362868,-0.026304896470588236,0.026304896470589437,9.820033192941176
385,121.86,0.5865921787709497,0.009401227646725378,-0.012181247637042954,-0.7474854818806361,-0.664098456714254,0.0030639189815914983,-0.024076057671039805,0.0009354836754866844,-0.02242069392156881,0.02242069392157001,9.812264787843137
386,121.938,0.5847953216374269,0.008703621265427532,-0.011564262842230858,-0.7475067240402453,-0.664096438554907,0.004146803265818988,-0.02266582553405839,-0.00012170276267975192,-0.020007141365461497,0.019810220682731947,9.80684692068273
387,122.057,0.6834532374100719,0.007746026383697757,-0.01077576281603298,-0.7475308646655545,-0.6640932189982669,0.004195525254829819,-0.022493884633164332,0.0012914080029712309,-0.029380565863453625,0.024496932931728013,9.811533632931726
388,122.16,0.6756756756756757,0.00691718375497371,-0.01009327960008023,-0.7475517594925029,-0.6640904323231919,0.004237696388175327,-0.022345061836592173,0.002514520682484202,-0.037493697991967403,0.028553498995984902,9.815590198995983
389,122.263,0.6477272727272727,0.006274398033126984,-0.009552481497184996,-0.7475604179605444,-0.6640948813611514,0.002749746012305343,-0.019912239153070558,0.000867400049662568,-0.0392266,0.0294199500000012,9.813316971541502
390,122.364,0.6363636363636364,0.005693646319912811,-0.009059919474103197,-0.7475656493806039,-0.6641011711051175,0.0008831689994240701,-0.016918355643219096,-0.0015121699272187912,-0.0392266,0.0294199500000012,9.809402063833991
391,122.444,0.6739130434782609,0.005251036473220047,-0.008678322297043016,-0.7475701860199063,-0.6641053122617702,-0.0003854321890215817,-0.014607119058529211,-0.0031440205113481587,-0.03887071350806451,0.0294199500000012,9.806294113508065
392,122.55,0.7162162162162162,0.004846368018827403,-0.008262087322463562,-0.7475803043840475,-0.6641020104026241,0.00012745480266707846,-0.012173530961116643,-0.002662115899335264,-0.03467916149193577,0.0294199500000012,9.802102561491935
393,122.644,0.625,0.0044875110875735,-0.007892973288402485,-0.747589277273003,-0.6640990823388528,0.0005822791160514256,-0.010015443403033498,-0.002234766526418109,-0.030962124798387128,0.029419950000001197,9.798385524798388
394,122.723,0.546875,0.004227549280541179,-0.007649562769129802,-0.7475931629453687,-0.6640993638930074,0.0009911432972280173,-0.008812332738513602,-0.0025092712933504867,-0.03096430433070841,0.03096430433070961,9.799932058661417
395,122.837,0.6444444444444445,0.0039109873635720695,-0.007392300500754579,-0.7475936271477025,-0.6641036286020091,0.0016186006557871147,-0.0079352910901735,-0.0037969277812329554,-0.035365714173228424,0.035365714173229625,9.808734878346456
396,122.943,0.5555555555555556,0.003618867750378702,-0.007155925556071488,-0.7475947860038868,-0.6641067079220448,0.0022631341977635533,-0.007175559473292131,-0.004841494195095103,-0.0392266,0.038987413414635345,9.816217463414633
397,123.044,0.7096774193548387,0.0033759001116057306,-0.006975703037808895,-0.747607438966656,-0.6640955701003699,0.00384769542710621,-0.007337212706423865,-0.0034113877062020136,-0.0392266,0.03496110589431033,9.812191155894308
398,123.139,0.6785714285714286,0.0031473661939479852,-0.006806186807759922,-0.7476193402682708,-0.6640850939314678,0.005338124306190883,-0.007489262777191337,-0.0020662380384312896,-0.0392266,0.03117398495935117,9.808404034959349
399,123.235,0.6666666666666666,0.0029888967985264346,-0.006612424955401082,-0.7476240952114426,-0.6640824445376041,0.005220122982291554,-0.006995180981656767,-0.0011186799014996764,-0.037194943426295035,0.0294199500000012,9.80665
400,123.334,0.6,0.002888712402044172,-0.006393008452700361,-0.7476226535455917,-0.6640866381899219,0.003681234187034645,-0.005920450334841609,-0.0005008029126268925,-0.03332698187250989,0.0294199500000012,9.80665
401,123.429,0.4117647058823529,0.0027925758599652386,-0.006182457263240084,-0.747621270128866,-0.664090662401742,0.0022045227168386947,-0.004889143148503883,9.2109349422719e-05,-0.029615301593625326,0.0294199500000012,9.80665
402,123.534,0.875,0.0026613104267295103,-0.006115190411087464,-0.747618816146386,-0.6640945707961856,0.002701619500294377,-0.0035075782332568226,0.0002170480205677534,-0.033342610000000335,0.033342610000001535,9.80665
403,123.632,0.8,0.0025376289238025753,-0.006060128904697423,-0.7476164825987341,-0.6640981934581306,0.0032649415712804036,-0.0022068383553995687,0.00030890612793155745,-0.03718681680000029,0.03718681680000149,9.80665
404,123.731,1.0,0.0024199665652759363,-0.00607448763886414,-0.747606898472521,-0.6641092899940085,0.004209738137549204,-0.0015102452273847934,-0.00024400977185918676,-0.0392266,0.0392266000000012,9.80665
405,123.849,0.8333333333333334,0.0022893244002645235,-0.006183888812358114,-0.74758594489303,-0.6641323233607471,0.005831336762117955,-0.0014941655396227816,-0.0017545527184430712,-0.0392266,0.0392266000000012,9.80665
406,123.94,1.0,0.002192802897616789,-0.006263229792048321,-0.7475703865661814,-0.6641494414640332,0.006909705122959065,-0.0014967106696008674,-0.0027697102665101532,-0.0392266,0.0392266000000012,9.806453079317269
407,124.042,0.7777777777777778,0.0021661253817046805,-0.006255231381306421,-0.7475645302565994,-0.6641561953591518,0.004798821150699236,-0.0017877008483546965,-0.0010204789463437887,-0.0392266,0.0392266000000012,9.802435897389557
408,124.138,0.6666666666666666,0.002141017131434461,-0.006247703465314045,-0.7475590184358163,-0.6641625519663223,0.002812106823866454,-0.0020615739577700652,0.0006258564138127897,-0.0392266,0.0392266000000012,9.798655020281124
409,124.215,0.8333333333333334,0.002128094573343264,-0.006234680313205065,-0.7475540644147135,-0.6641682919493269,0.0019436848680488925,-0.0022055494058877256,0.0014444683301262616,-0.0392266,0.03801057540000097,9.79684335
410,124.351,0.5,0.0021241833822316356,-0.006193371297248568,-0.7475439173217365,-0.6641801112650694,0.0023102062973193865,-0.0022614611256867654,0.0015749532650224881,-0.0392266,0.032675757800001135,9.79684335
411,124.438,0.6,0.002121669283364857,-0.006167226992836435,-0.7475371675106065,-0.6641879605367149,0.0024661688111810706,-0.0022622935364460285,0.0016227810795741346,-0.0392266,0.029419950000001197,9.7969996312749
412,124.562,0.6666666666666666,0.002117728503275744,-0.006138283688825536,-0.7475198974113847,-0.6642076769326855,0.00036674470035919773,-0.0012302978652570427,0.0006367834962058658,-0.0392266,0.0294199500000012,9.801844350796813
413,124.644,0.4444444444444444,0.002115122503539395,-0.006119143761979616,-0.7475084768618993,-0.6642207151945368,-0.0010215841471199688,-0.0005478491149545572,-1.5247163763560789e-05,-0.0392266,0.0294199500000012,9.805048116932271
414,124.751,0.6,0.0021263269686171557,-0.006177983330494906,-0.7474916467853278,-0.664239064720747,-0.000807505488081458,0.00034187118528436353,-0.000568825586738235,-0.0392266,0.0294199500000012,9.80665
415,124.844,0.6,0.002143951123768243,-0.0062743785800442415,-0.74747597797366,-0.6642557348231932,0.00047229158310549196,0.0011147518069987846,-0.0008894826723150284,-0.0392266,0.0294199500000012,9.80665
416,124.961,1.0,0.002171835273979359,-0.00638794107852272,-0.7474592369362897,-0.6642734091129322,0.0012653683731332253,0.001194807994179402,-0.0007964859954081324,-0.03816748179999996,0.02836083180000116,9.805590881799999
417,125.034,1.0,0.0022011123733185114,-0.006442763465074362,-0.747454971380714,-0.6642775780416323,6.1040045693376e-05,-0.0006109762471171343,0.0002939447062091315,-0.035303939999999666,0.025497290000000866,9.802727339999999
418,125.164,0.6666666666666666,0.0022532496735115145,-0.0065403923726320675,-0.7474473751858534,-0.6642850021612354,-0.0020836542360485257,-0.0038267564028502494,0.0022358075994998814,-0.030204481999999845,0.020397832000001042,9.797627881999999
419,125.259,0.7142857142857143,0.0022700940121855493,-0.006498995392427524,-0.7474290530828729,-0.6643059619847147,-0.0018600516486912758,-0.003936299844644949,0.001301832799799694,-0.032361945000000114,0.022555295000001307,9.790959359999999
420,125.344,0.6666666666666666,0.0022800936564952913,-0.006435056338672837,-0.7474096124975732,-0.6643284219894451,-0.0012326886877417815,-0.003499748948961514,-9.525319561356615e-05,-0.03569620599999987,0.025889556000001063,9.784290838
421,125.464,0.8333333333333334,0.002278052447670926,-0.006343369597790558,-0.7473880047316186,-0.6643536235217775,-0.0004407064121891813,-0.002923634043334428,-0.0013164932370200641,-0.0392266,0.029419950000001197,9.78074637868526
422,125.587,0.6666666666666666,0.002226273270899322,-0.006245024675884773,-0.7473838079026816,-0.6643594469602754,8.292759298366716e-05,-0.002456707406818737,-0.0002585805561096412,-0.0392266,0.0294199500000012,9.795163326294821
423,125.62,0.7142857142857143,0.002212381296643526,-0.006218639452934441,-0.7473826819241862,-0.6643610093462138,0.00022341476510321192,-0.002331434406777942,2.5249675354130884e-05,-0.0392266,0.0294199500000012,9.799031287848605
424,125.73,1.0,0.002178349741155929,-0.006157912245541728,-0.7473822864718545,-0.6643621393455943,0.0008811156674995339,-0.0018417600153788156,0.0005361235038523189,-0.0392266,0.027647663855422788,9.80665
425,125.843,0.625,0.0021616042061361096,-0.006135924168910588,-0.7473868626808128,-0.6643572491388415,0.0018378081832017858,-0.001231749496706944,0.00041512381117117243,-0.0392266,0.023197256425703843,9.80665
426,125.968,0.5,0.002147113043518203,-0.006119297482103259,-0.7473916370263861,-0.6643520790783739,0.0023678814972828382,-0.0008697690114293793,0.0005716008108213531,-0.0392266,0.020941690836654796,9.805321609163347
427,126.044,0.6666666666666666,0.0021448647394147376,-0.0061217127740552674,-0.7473940714403968,-0.6643493253539093,0.001830605126312578,-0.0011587186052790365,0.001139184972085781,-0.0392266,0.02391103505976205,9.80235226494024
428,126.121,0.6666666666666666,0.002142586852362542,-0.006124159846164539,-0.7473965378861708,-0.664346535396228,0.0012862593294084641,-0.0014514701674688394,0.0017142373459984616,-0.0392266,0.02691944960159459,9.799343850398406
429,126.252,0.6,0.0021010132814286084,-0.006082578696131242,-0.7473882805912425,-0.6643563319687946,0.00031744797364813965,-0.0016150084706023416,0.0008945803167299778,-0.0392266,0.029419950000001197,9.7994715322
430,126.351,0.5,0.002042381252185208,-0.006018132533001135,-0.7473730503606432,-0.6643742339739397,-0.0004455436905845755,-0.0014971132557839194,-0.0010228023882954697,-0.0392266,0.0294199500000012,9.803354965599999
431,126.445,0.8333333333333334,0.001987203409663111,-0.005958771290278387,-0.7473595421562559,-0.6643901395650414,-0.0009631053452188981,-0.0014884782518954165,-0.002668589137361501,-0.0392266,0.0294199500000012,9.80665
432,126.547,1.0,0.0019318229781169162,-0.005911038862686868,-0.7473535691945115,-0.6643974428770248,0.0003611118170535816,-0.002420730707753007,-0.00286153820343315,-0.0392266,0.0294199500000012,9.80665
433,126.639,0.75,0.0018818720006438805,-0.005867986084859225,-0.7473481818172517,-0.6644040301780294,0.001555503767338502,-0.0032615858640166733,-0.003035570694399726,-0.0392266,0.0294199500000012,9.80665
434,126.724,0.5,0.0018373279710412924,-0.0058458368826042025,-0.7473464505643873,-0.664406299851842,0.00262790321440052,-0.0033961679615575617,-0.0027824218402289456,-0.03337424435483785,0.03380921673387281,9.80518691108871
435,126.837,0.5333333333333333,0.0017808809587220472,-0.005846793157661172,-0.7473497475765724,-0.6644027352244352,0.003999901661318911,-0.002467353954054993,-0.0017319847900052136,-0.01550083387096729,0.047214274596775734,9.800718558467741
436,126.95,1.0,0.0017297036402202344,-0.005845846661638854,-0.7473509722958394,-0.6644015037518224,0.00516340460628271,-0.001716291429474952,-0.0007845547632314249,-0.0023535960000000892,0.057074703000001135,9.797431749
437,127.053,0.8,0.0017144371696054066,-0.0058336526158401444,-0.7473397477923307,-0.6644142755744216,0.0049823181480169385,-0.0020902335345744905,-0.0005343916383572042,-0.018514955199999215,0.04495368360000179,9.801472088799999
438,127.188,0.6666666666666666,0.0016886857566927422,-0.005813105420280091,-0.747325254308527,-0.6644308206245648,0.004701619955651903,-0.002713970332330129,-0.00021545716311370346,-0.039347173565573774,0.029299376434427427,9.80665
439,127.26,0.6,0.0015402069818157788,-0.005695028426744817,-0.7473226459119506,-0.6644350752843681,0.0035345905212795683,-0.0061822108672475165,-0.0002553674233046781,-0.04224093913934438,0.02640561086065682,9.80665
440,127.359,0.6,0.001336048666359983,-0.005532672560633838,-0.7473190593666581,-0.6644409254415974,0.0019299250490178387,-0.01095104160275824,-0.00031024403106726036,-0.04621986680327839,0.02242668319672281,9.80665
441,127.461,0.6875,0.0008828957243930468,-0.005154734990913554,-0.7473111902967149,-0.6644527605152484,0.001080967846431187,-0.01703877347095505,-0.00018218189952607609,-0.047816921317829574,0.02082962868217163,9.804217342635658
442,127.572,0.5,-0.00018824934132137885,-0.0042419664069571,-0.7472926910060955,-0.6644794650299827,0.00207183275181377,-0.026459313459810167,0.00039662681443279374,-0.04359778120155027,0.02504876879845093,9.795779062403101
443,127.651,0.6666666666666666,-0.0009505958295324551,-0.003592338315672854,-0.7472795248443034,-0.6644984709458747,0.002777042909698587,-0.03316402210052606,0.0008085717549980661,-0.04059496976744194,0.028051580232559263,9.789773439534883
444,127.764,0.8571428571428571,-0.002479933658338195,-0.0022948781634957076,-0.747258013066996,-0.6645214179201249,0.002559396854203758,-0.03825837173949798,0.0007371407963576011,-0.0392266,0.029419950000001197,9.780947086693548
445,127.869,0.5714285714285714,-0.004091669243494531,-0.0009292957572397159,-0.7472368603296641,-0.6645408988981509,0.0018243864272540944,-0.04103887997447479,0.0003837507458463884,-0.0392266,0.029419950000001197,9.772643068548387
446,127.943,1.0,-0.005246165590475131,4.859716115812552e-05,-0.7472203254294849,-0.6645549060864523,0.0013634934518486255,-0.0430122603178023,0.0001519836653024064,-0.0392266,0.029419950000001197,9.7667957744
447,128.044,0.6,-0.007031408863187221,0.0015576234462861469,-0.7471794343945506,-0.6645771513631347,0.0013775523826479925,-0.04586086823046232,3.0326745705673975e-05,-0.0392266,0.029419950000001197,9.7588720012
448,128.164,0.8571428571428571,-0.00915248997928009,0.003350525963269342,-0.7471308509867078,-0.6646035813948366,0.0013942560628056506,-0.04924535287916618,-0.00011421612906267317,-0.0392266,0.029419950000001194,9.749457617200001
449,128.24,0.6,-0.010550258925659868,0.004563672008807307,-0.7470812056625166,-0.66462851345323,0.001259152345904478,-0.04973504228926286,-0.0005244990586912969,-0.0392266,0.02722740630081401,9.743425012601627
450,128.36,1.0,-0.012790069291615719,0.006525973328950306,-0.7469914386200027,-0.6646728192048933,0.0009580028311508339,-0.04951119777269479,-0.0013644727166057117,-0.0392266,0.02244367459349694,9.733857549186991
451,128.472,0.6666666666666666,-0.014893783764827978,0.008352852034223607,-0.7469001442002751,-0.6647127517940696,0.000627468960225609,-0.04992038169549597,-0.0018729542043233948,-0.0392266,0.02117778501945647,9.7281968
452,128.536,0.7142857142857143,-0.01610899288095953,0.009392228306127999,-0.7468405426347617,-0.6647341658081584,0.0003896484859034096,-0.050765845518747646,-0.001890900855565053,-0.0392266,0.023619907976654864,9.7281968
453,128.659,0.6666666666666666,-0.01844447290102494,0.011389779578694314,-0.7467259958760407,-0.664775320866485,-6.741273818458235e-05,-0.05239072130405951,-0.0019253920759201163,-0.0392266,0.02831336303502069,9.7281968
454,128.748,0.6666666666666666,-0.020204440019157745,0.012927596196139927,-0.7466235352756551,-0.6648080822839562,-0.0004897474033397412,-0.05349074971050983,-0.0017848806192858075,-0.0392266,0.029419950000001194,9.7281968
455,128.823,0.8888888888888888,-0.02171609687839016,0.01426115775143886,-0.7465292182243894,-0.6648369050243775,-0.000882962731749708,-0.05438690922493426,-0.0015990762030630413,-0.0392266,0.029419950000001194,9.7281968
456,128.964,0.7777777777777778,-0.02457870189242111,0.016811959564417576,-0.7463379411638604,-0.664896898236491,-0.0015400254301330169,-0.056012070741519315,-0.0019275374171961878,-0.03812384417670714,0.028317194176708332,9.725991288353413
457,129.063,0.5714285714285714,-0.026647243294778983,0.018726793060723307,-0.746164080534375,-0.6649554742378472,-0.0017684971713591512,-0.05698420777617672,-0.0040786890930167114,-0.03422481465863519,0.024418164658636377,9.71819322931727
458,129.163,0.7142857142857143,-0.028736679054737126,0.02066096830951762,-0.7459884637369147,-0.6650146419159847,-0.0019992767079512826,-0.057966164376841094,-0.006251569573644226,-0.030286401004015744,0.02047975100401693,9.710316402008031
459,129.251,0.8888888888888888,-0.03064014356821075,0.02243538436731437,-0.7458192700625702,-0.6650569117598577,-0.0017162285620715857,-0.05922332927886301,-0.005394644607310821,-0.02941995,0.01961330000000119,9.711203900404858
460,129.345,0.4444444444444444,-0.032696448609886505,0.024356541417130124,-0.7456333238501927,-0.6650985750589512,-0.001240788463141121,-0.0607061571317164,-0.003493339831936933,-0.02941995,0.01961330000000119,9.714935985829959
461,129.454,0.45454545454545453,-0.03507880120453508,0.02660517758830144,-0.7454065313244528,-0.6651510771728616,-0.001201931563184348,-0.06251974415591419,-0.0018712435372350842,-0.02941995,0.017914510236220264,9.71923954488189
462,129.544,0.5454545454545454,-0.037039069325619886,0.028530130348480096,-0.7451827857128265,-0.6652081101766236,-0.002843114639097346,-0.06432458174627627,-0.002434242443423656,-0.02941995,0.010964915748031545,9.722714342125984
463,129.621,1.0,-0.03871618760699234,0.03017703437663285,-0.7449913589117684,-0.6652569050798421,-0.004247237937378381,-0.06586872057358595,-0.00291591928538496,-0.02941995,0.005019151574803787,9.725687224212598
464,129.77,0.8,-0.04224837435016986,0.033457974072807296,-0.7445590062932776,-0.665365727672955,-0.002947412122669207,-0.06424554572047941,-0.004215421166315897,-0.026111682530120292,0.0066165349397606064,9.734813334939759
465,129.842,1.0,-0.044062463674126744,0.03507857067513202,-0.7443269275227209,-0.6654236980361513,-0.0008173052344962297,-0.06173697257616403,-0.004980756788997134,-0.02327602469879483,0.012287850602411533,9.74048465060241
466,129.956,1.0,-0.04672568277777085,0.03745139955812838,-0.7439629802309942,-0.6655307371287443,0.0019416197990067255,-0.05619739314168838,-0.006045765819027964,-0.0196133,0.01878954140000172,9.751105134399998
467,130.041,1.0,-0.04802100341826448,0.03858294494342198,-0.7437032085748315,-0.6656609114181637,0.0019721265807747823,-0.04689054431021274,-0.006355208389461015,-0.0196133,0.015455280400001409,9.7644421784
468,130.164,1.0,-0.049895408580390224,0.0402203576774348,-0.7433273037076787,-0.6658492812722647,0.002016271688509727,-0.0334229865893738,-0.0068029899913817065,-0.0196133,0.010630408600001785,9.783741665599997
469,130.242,0.3333333333333333,-0.050682270205447646,0.0409183537989982,-0.7430799392496803,-0.6660237766075182,0.0018796781466032426,-0.02842508722096749,-0.006854578747325358,-0.0196133,0.009806650000001199,9.791473041666665
470,130.351,1.0,-0.05157500168327356,0.04171852442425049,-0.7427296370035709,-0.6662959603707056,0.0016040601508899106,-0.023264682541291368,-0.006807036080678542,-0.0196133,0.0098066500000012,9.799956572222221
471,130.444,1.0,-0.052314893500454956,0.04238857030397188,-0.7424259065078705,-0.6665358130454311,0.0013190906316756547,-0.01901073032522641,-0.006844844327742112,-0.0196133,0.009533157768926395,9.807470476693224
472,130.539,0.5,-0.05279715246910032,0.042914036983139225,-0.7420547925730553,-0.666876485524516,0.0004028909639326953,-0.016534755273585215,-0.007867030415357303,-0.0196133,0.005821477490041627,9.818605517529878
473,130.66,0.5,-0.05341139810284868,0.04358331559555243,-0.7415821106139748,-0.6673103946820874,-0.0007640580865610727,-0.013381144944652468,-0.009168972695372554,-0.0196133,0.0010939689243037662,9.832788043227092
474,130.755,1.0,-0.05375773312983028,0.04399654210280777,-0.741180944190826,-0.6677008822108338,-0.0011388905160504637,-0.01195037119360939,-0.011183823188466465,-0.0196133,0.0026493772177432276,9.844018081653227
475,130.87,1.0,-0.05410821801447071,0.04443998230466891,-0.7406801183773468,-0.6681987786552802,-0.001318761900502952,-0.010747140468729094,-0.014125033311786255,-0.0196133,0.007196815725807759,9.857660397177419
476,130.964,1.0,-0.05436831200575402,0.0447421669103403,-0.7402497774072759,-0.6686345074907336,-0.0011712663743898063,-0.009420029321811794,-0.015746147175174807,-0.01851933107569756,0.00980665000000121,9.866583868924302
477,131.034,1.0,-0.05451567736686955,0.044861388134891975,-0.7398925011492645,-0.6690094564199439,-0.0005444512248923862,-0.007828625972824658,-0.0155789347001875,-0.01578440876494091,0.00980665000000121,9.86931879123506
478,131.164,1.0,-0.054789355894655556,0.04508279898048795,-0.739228988098672,-0.6697057901456204,0.0006196340527457526,-0.004873162610419793,-0.015268397246639625,-0.010705267330678234,0.00980665000000121,9.874397932669321
479,131.268,1.0,-0.05494447552507409,0.04521608440095651,-0.7388049302700211,-0.6701518360525617,0.0003239721259730323,-0.004418065170150083,-0.011182137017908031,-0.00980665,0.00980665000000121,9.882203842608694
480,131.349,1.0,-0.055051175108268895,0.04531019713335804,-0.7384982632118599,-0.6704746844541909,-0.00017764334992050848,-0.004485857401691042,-0.007150818030958045,-0.00980665,0.009806650000001211,9.889111135217389
481,131.444,1.0,-0.055164870421877385,0.04544901903435478,-0.7382028430126687,-0.6707814283907708,-0.0008546228755998152,-0.004760088248448302,-0.003353364219595836,-0.00980665,0.008822339405206173,9.895894160594795
482,131.571,0.8888888888888888,-0.05527832542444717,0.04573036486816089,-0.7380242372171507,-0.6709494009921088,-0.0020581606583371394,-0.005782291727645968,-0.0014100918893834922,-0.00980665,0.004192434014871346,9.90052406598513
483,131.685,0.7647058823529411,-0.05538016692281689,0.04598291152212857,-0.7378639139046386,-0.6711001795476405,-0.0031385016601643036,-0.006699860205035965,0.0003342628007283106,-0.00980665,3.6455947956776785e-05,9.904680044052043
484,131.77,1.0,-0.05458511581976467,0.04551753907692755,-0.7378477190616378,-0.6712135673169749,-0.002915730942040673,0.014763584915549376,0.0005736362745519794,-0.00980665,1.2125744104855935e-15,9.901421465599999
485,131.863,1.0,-0.05370389160778611,0.04499985262090838,-0.7378313460815386,-0.671337639447804,-0.0026585998991504518,0.03853559609316098,0.0008217161182546741,-0.00980665,1.2121276502953713e-15,9.8977733918
486,131.977,0.5,-0.05153851178486997,0.04338957578730072,-0.7378904609931763,-0.6715356792381233,-0.0027377635325894854,0.06621093089243243,0.000821671450503211,-0.008204766932271072,1.2117769675654117e-15,9.89490985
487,132.068,0.8,-0.04826769169539542,0.040717458893650756,-0.7380501922294707,-0.6717590727813633,-0.003361441305396999,0.08622112972624804,0.00038936816571478485,-0.004649367928286755,1.2117769675654117e-15,9.89490985
488,132.181,0.7,-0.04420612389198235,0.0373993357180198,-0.7382485398086054,-0.672036473554837,-0.004135898319982081,0.11106895904735738,-0.00014744800111035324,-0.00023442191235060333,1.2117769675654117e-15,9.89490985
489,132.26,0.0,-0.04057511908521021,0.03432974297111957,-0.7384024604465266,-0.672226322922471,-0.003212830085307636,0.11543800225853833,-0.0014484271779652905,0.0,1.211075602105493e-15,9.889182766400001
490,132.48,1.0,-0.030385501214704482,0.025683597150935506,-0.738814830636334,-0.6727102304775125,-0.0011589166898619144,0.12098703264362363,-0.003570287533673998,0.0,1.2087602496910869e-15,9.87027647916667
491,132.601,1.0,-0.025014866585639412,0.021095110096982117,-0.7389968967856618,-0.6728771013787105,-0.001957845301293425,0.11579410069518621,-0.0008591633652233655,0.0,1.2070302835167107e-15,9.856150233333334
492,132.644,0.6666666666666666,-0.023106293948864084,0.019464490730701046,-0.7390615979792245,-0.6729364026080618,-0.0022417620805624946,0.1139486785978075,0.00010429398389552244,0.0,1.2064155021489571e-15,9.851130162499999
493,132.745,0.4,-0.018911172975181145,0.015843291615744035,-0.7391612473374892,-0.6730549864338197,-0.0023108547400712987,0.1081382906147337,0.0007075539626074811,0.0,1.2052275576983024e-15,9.841429859919028
494,132.874,1.0,-0.01384843548160148,0.011432558198216624,-0.7392348206604386,-0.6731851944259688,-0.0017855723807022976,0.09920243228133448,-0.00022541398162711232,0.0,1.2039731050288784e-15,9.83118647651822
495,132.951,1.0,-0.010950892281725421,0.008890956266053447,-0.7392722131090343,-0.67325437959283,-0.0011974398978057577,0.09366052612662429,-0.0006876969058066595,0.0,1.2032981316972137e-15,9.825674901000001
496,133.044,0.3333333333333333,-0.00807229725282042,0.006276326036235628,-0.7392848091946552,-0.6732953279980501,0.0008837215043605291,0.08592818039655652,-0.0007737512080930317,0.0,1.2028513715069913e-15,9.8220268272
497,133.138,0.6923076923076923,-0.005162749589196748,0.0036335815028720507,-0.739297540722057,-0.6733367167087029,0.0029872609861194685,0.07811269116401687,-0.0008607308254577298,0.0,1.2023998074437558e-15,9.818339526799999
498,133.239,0.375,-0.002481875981539034,0.001172303661416189,-0.7392966721086013,-0.6733668703542801,0.003928735602713863,0.06932675403605928,-0.0008386143773564258,0.0,1.2019156306330526e-15,9.814385923107569
499,133.341,1.0,-0.00018178148352211926,-0.0009673701058520519,-0.7392824886834765,-0.6733842276458173,0.0036734022669479356,0.060098546508892764,-0.00071057248433897,0.0,1.2014275877572153e-15,9.810400750597609
500,133.442,0.75,0.0020491900012156246,-0.0030485622571041677,-0.739268032678099,-0.6734009547213916,0.0034409106289967823,0.05092624526470944,-0.0006109352689236275,0.0,1.200992272650905e-15,9.806846132999999
501,133.549,0.75,0.0034653705910168992,-0.004490527357862771,-0.7392443450314174,-0.6734093178667776,0.0036083033513277687,0.040505954951048403,-0.0010576132219284604,0.0,1.2015062870633112e-15,9.8110433792
502,133.644,1.0,0.004722727189438584,-0.005770776746386757,-0.7392233139432423,-0.6734167430893166,0.0037569230580702323,0.031254295326769974,-0.0014541964512318145,0.0,1.2019626549995598e-15,9.814769906199999
503,133.785,1.0,0.005791229811788657,-0.007016221652685577,-0.7392018053088331,-0.6734217530458675,0.0029672206712356743,0.019911006070584675,-0.0004244557353688288,0.0,1.201696551302892e-15,9.812597004618473
504,133.849,1.0,0.006117357694176579,-0.007451136659460919,-0.7391939755620501,-0.6734228299871566,0.0024075652528780297,0.015237898509726431,0.0003652564665098275,0.0,1.201387868699638e-15,9.810076419879518
505,133.953,1.0,0.006543586155305709,-0.008061351406716034,-0.7391843996462627,-0.6734230548226092,0.0017456572997495662,0.007786134045370338,0.001455535274578633,0.0,1.2009682532858392e-15,9.80665
506,134.044,1.0,0.006452042141289198,-0.008163068850992106,-0.7391901146938132,-0.6734164218239783,0.0022749220314764755,0.0019018659561370974,0.001545270822296911,0.0,1.2009682532858392e-15,9.80665
507,134.143,0.6153846153846154,0.0063524503018646625,-0.008273728488171548,-0.7391963321631263,-0.6734092057045885,0.0028507155308276156,-0.004499700426653857,0.001642895209375018,0.0,1.2009682532858392e-15,9.80665
508,134.244,0.875,0.005920516342926492,-0.008091033802281522,-0.7392047096990614,-0.6734057348380791,0.003385691054595216,-0.009674488713678361,0.0016666345943052044,0.0,1.2009682532858392e-15,9.80665
509,134.397,0.75,0.005012265637763046,-0.007587049505615904,-0.739218964374388,-0.6734034681469961,0.004155779472337231,-0.016471046811112215,0.0016442824764033967,0.0,1.2009682532858392e-15,9.80665
510,134.449,1.0,0.004665732133928484,-0.007379685690593549,-0.7392245725197248,-0.6734021470537253,0.004368680699977031,-0.01853894077211741,0.0016276273214113554,0.0,1.200910836476917e-15,9.806181156175299
511,134.538,1.0,0.00385670478570874,-0.006818961849074621,-0.7392385264799035,-0.6733967440543709,0.004454498374055471,-0.020697309639290243,0.001547442296467924,0.0,1.2004849951440788e-15,9.802703897808764
512,134.644,0.6,0.002893144123784136,-0.0061511334535577205,-0.7392551458032625,-0.673390309021432,0.004556708188126418,-0.02326795121142858,0.0014519410308049643,0.0,1.1999778133319341e-15,9.798562444023904
513,134.724,1.0,0.002137699008625492,-0.005615340717020889,-0.739263871815576,-0.6733882150007353,0.0047578393451629085,-0.024449173661489635,0.0008042612743954767,0.0,1.1999416191338369e-15,9.79826689596774
514,134.87,1.0,0.0006960441579981389,-0.004566651309828762,-0.7392712830402373,-0.6733905555634444,0.0054014740256412485,-0.02491217082546604,-0.0016616694854512727,0.0,1.2006486407668195e-15,9.804040165725805
515,134.977,0.5,-0.00034362708006331085,-0.003785637563033601,-0.7392753433344209,-0.6733916171580069,0.005229504946619308,-0.02505825677514077,-0.0030556441061198466,0.0,1.2009682532858392e-15,9.80665
516,135.054,0.5,-0.001072242868135366,-0.0032091729833273962,-0.7392766767763661,-0.6733916237912149,0.004360105041414555,-0.02493953754007817,-0.003580068189650737,0.0,1.2009682532858392e-15,9.80665
517,135.168,0.6,-0.0021509727361901636,-0.0023557059432428324,-0.739278650963142,-0.6733916336118084,0.003072941545397051,-0.024763771399855614,-0.004356488261371844,0.0,1.2009682532858392e-15,9.80665
518,135.244,1.0,-0.002817113905869512,-0.0017984717689495146,-0.7392873756573557,-0.6733807246212198,0.002095656252000578,-0.02394864796102057,-0.0041110742464662035,0.0,1.2009682532858392e-15,9.80665
519,135.345,1.0,-0.003680516586989455,-0.0010627804192913039,-0.7393020258475578,-0.6733617252304942,0.0007477434219327916,-0.022577536582946887,-0.0034702350664884344,0.0,1.2009682532858392e-15,9.80665
520,135.468,0.6,-0.004656379852884149,-0.00020336370525202632,-0.7393174675087493,-0.6733404962106933,-0.0006575106563681324,-0.020504544563000566,-0.0025408779537040805,0.0,1.2009682532858392e-15,9.80665
521,135.543,0.5,-0.005120315787447668,0.00025733807303723947,-0.73932272216079,-0.673330861624279,-0.00110469338468406,-0.018541339304416232,-0.0017159544617502255,0.0,1.2009682532858392e-15,9.80665
522,135.655,0.6666666666666666,-0.005813126783062332,0.0009453193952823546,-0.7393305691078376,-0.6733164739752339,-0.0017724862589689953,-0.015609619451597768,-0.00048406871376613933,0.0,1.2009682532858392e-15,9.80665
523,135.747,1.0,-0.006256694137028975,0.0014097693596635402,-0.7393336014891241,-0.6733084648830359,-0.0018633729078799041,-0.013571860167317627,0.00010027082175993487,0.0,1.2009682532858392e-15,9.80665
524,135.868,0.5714285714285714,-0.00674773991116118,0.0019465605971889506,-0.7393350787850735,-0.6733007334461667,-0.0016462419936884199,-0.011164269905777846,0.0005542734842521886,0.0,1.2009682532858392e-15,9.80665
525,135.963,0.4666666666666667,-0.00708307242911733,0.002324597164213867,-0.7393346634064738,-0.6732968175475589,-0.0011029240884820194,-0.00959544631093751,0.0004238129360603201,0.0,1.2009682532858392e-15,9.80665
526,136.065,0.8,-0.007307370086672602,0.0026131013842152504,-0.739329957827232,-0.6732984383695689,0.0004886307218110596,-0.008780210696160869,-0.0010329077718778104,0.0,1.2009682532858392e-15,9.80665
527,136.164,1.0,-0.007525070754299746,0.0028931201859812585,-0.7393253906473797,-0.6733000115203434,0.002033375096507062,-0.007988952599466005,-0.002446783753111675,0.0,1.2009682532858392e-15,9.80665
528,136.27,0.6666666666666666,-0.007611674345692541,0.003085212601654409,-0.7393224807176081,-0.6733014014219487,0.0011190488487481595,-0.005459988676011473,-0.0027656904309988017,0.0,1.2009682532858392e-15,9.80665
529,136.382,1.0,-0.007662641899363712,0.0032583672886952494,-0.7393199540497206,-0.6733027885053412,-0.0005577548518776588,-0.0023224836215377425,-0.0027719731181859966,0.0,1.2009682532858392e-15,9.80665
530,136.485,1.0,-0.007600517293375454,0.0033361971578811096,-0.7393204365617214,-0.6733025787605657,-0.0018890397807238184,0.0002644709366644479,-0.0022250438854925524,0.0,1.2009682532858392e-15,9.80665
531,136.564,1.0,-0.007460738485477307,0.003327079225599809,-0.7393231785499487,-0.6733011623758122,-0.0027319633345792554,0.0019963910111147304,-0.0013383762844702783,0.0,1.2009682532858392e-15,9.80665
532,136.661,0.7142857142857143,-0.007289111341602307,0.00331588378976074,-0.7393265452949871,-0.6732994232704821,-0.003766945419693255,0.004122925786073414,-0.0002496831541007774,0.0,1.2009682532858392e-15,9.80665
533,136.724,0.8571428571428571,-0.007134469333008253,0.003275683050121032,-0.7393240535612783,-0.673303970955874,-0.003909134577336418,0.004960960798686511,-0.00029613294065060033,0.0,1.2009682532858392e-15,9.80665
534,136.84,1.0,-0.006786137398576801,0.003153156998038321,-0.7393125742753942,-0.6733207070884639,-0.00339022164341934,0.005703990257555432,-0.0014916346448327078,0.0,1.2009682532858392e-15,9.80665
535,136.94,1.0,-0.006485026322666664,0.0030461519220441836,-0.7393026885119506,-0.6733351249013557,-0.002930803497162472,0.006303344202038759,-0.002496282488434179,0.0,1.2009682532858392e-15,9.80665
536,137.044,0.6,-0.006144131307620421,0.0028884897858855933,-0.7392927493907272,-0.6733497869391732,-0.002046818327366395,0.005541633872085171,-0.002668266377571348,0.0,1.2009682532858392e-15,9.80665
537,137.171,0.6666666666666666,-0.0057278460488621435,0.0026959600619227532,-0.7392806121946178,-0.6733676915430464,-0.0009673364373272543,0.00461146837300749,-0.002878285165267641,0.0,1.2009682532858392e-15,9.80665
538,137.254,0.3333333333333333,-0.00544701353237802,0.0025289022840896086,-0.7392826891255246,-0.6733682828548524,-0.00023470890809257838,0.005375985981874027,-0.0020648622717035587,0.0,1.2009682532858392e-15,9.80665
539,137.364,0.75,-0.005071831377593292,0.002293425479923691,-0.739288858450446,-0.673365273909098,0.0007455076809119695,0.006857699233978739,-0.0006623028639150511,0.0,1.2009682532858392e-15,9.80665
540,137.444,1.0,-0.004797377905981276,0.0021191409053155654,-0.7392932773017582,-0.6733631342875885,0.0012874011955861997,0.007873990253890309,0.0002883725254183565,0.0,1.2009682532858392e-15,9.80665
541,137.537,0.6,-0.004459004703697645,0.0018798173017319393,-0.7392975906810206,-0.673361237410557,-0.0001556114896583353,0.00831204981903039,0.0005525717636073231,0.0,1.2009682532858392e-15,9.80665
542,137.684,0.6,-0.003924156738797846,0.0015015316057450114,-0.7393044086030804,-0.6733582391210555,-0.0024365025082700954,0.00900446655102583,0.0009701770110671983,0.0,1.2009682532858392e-15,9.80665
543,137.764,0.5555555555555556,-0.0036738278357980247,0.001311199814953266,-0.7392980943989653,-0.6733668445144909,-0.0008592102861412158,0.008281864366301756,-0.00021060520324826739,0.0,1.2009682532858392e-15,9.80665
544,137.862,1.0,-0.0033698018982422006,0.0010790451617740501,-0.7392897131735868,-0.6733780461460086,0.0012546977904137405,0.0073257925410178445,-0.001747845611091527,0.0,1.2009682532858392e-15,9.80665
545,137.955,1.0,-0.0030970470823404824,0.000862086808133966,-0.7392821237289522,-0.6733881321113387,0.003094270549438776,0.0063496965966702654,-0.0029370676910067447,0.0,1.2009682532858392e-15,9.80665
546,138.044,0.6666666666666666,-0.0029144488199040358,0.0006711390815502202,-0.7392766729333562,-0.6733950763723008,0.004026245880573231,0.005073194409271961,-0.0027335793030957645,0.0,1.2009682532858392e-15,9.80665
547,138.164,0.4444444444444444,-0.0026682489154953885,0.00041368147267330696,-0.7392693235460358,-0.673404439420789,0.005282841832664401,0.003352067864465576,-0.0024592129373731454,0.0,1.2009682532858392e-15,9.80665
548,138.261,1.0,-0.0025263015355777253,0.0002642522140081698,-0.7392784740735632,-0.6733950064171994,0.004071858594208774,0.0028898205908792765,-0.001508778815916737,0.0,1.2009682532858392e-15,9.80665
549,138.364,0.6666666666666666,-0.002390333971170202,0.00012075850711406802,-0.7392920940811726,-0.6733805923776419,0.0022100091171194615,0.002639272337317413,-0.0003110832215276029,0.0,1.2009682532858392e-15,9.80665
550,138.459,0.3333333333333333,-0.0022679374296523595,-3.662334463577961e-06,-0.7393017555944632,-0.6733704465213065,0.000957509730942521,0.002357193149626296,0.00046445078682157267,0.0,1.2009682532858392e-15,9.80665
551,138.564,0.3333333333333333,-0.0021436977053223244,-0.00011210546699623599,-0.7393017961540006,-0.6733707802269288,0.0012775871274060926,0.001858413780108184,0.00011452297098009595,0.0,1.2009682532858392e-15,9.80665
