,time,img_sim,orientation.x,orientation.y,orientation.z,orientation.w,angular_velocity.x,angular_velocity.y,angular_velocity.z,linear_acceleration.x,linear_acceleration.y,linear_acceleration.z
0,118.261,0.9837067209775967,-0.0007269614955352593,0.000569408622429424,-0.7066650893848646,-0.7075475946639599,0.0005515502386737439,-0.0004541478326038171,-0.0005337991666939755,0.0,-0.0098066499999988,9.80665
1,118.386,0.9938900203665988,-0.0007300812035012411,0.0005694841625785265,-0.706660098081539,-0.7075525764178376,0.0005452937634014734,-0.0004831898212245835,-0.0005048936018795088,0.0,-0.0098066499999988,9.80665
2,118.474,0.9918533604887984,-0.0007321131940908846,0.0005694669341921234,-0.7066566065024714,-0.7075560614950864,0.000538798637480576,-0.0005101262976090054,-0.00047876755566706494,0.0,-0.0098066499999988,9.80665
3,118.575,0.9959266802443992,-0.0007343205334950174,0.0005694856694385188,-0.7066525371315708,-0.7075601233805128,0.0005299484212882821,-0.000528336106333882,-0.00046460290392860693,0.0,-0.0098066499999988,9.80665
4,118.649,0.9959266802443992,-0.0007357405797482112,0.000569560233382234,-0.706649457678238,-0.7075631973128504,0.0005212593250907963,-0.0005216047945432371,-0.00047921916097402455,0.0,-0.0098066499999988,9.80665
5,118.772,0.9837067209775967,-0.0007381009268987902,0.0005696841707481387,-0.706644339127428,-0.7075683066868713,0.0005068166381679476,-0.0005104162627831103,-0.0005035137503873555,0.0,-0.0098066499999988,9.80665
6,118.91,0.9877800407331976,-0.000744809211980804,0.0005664544266118213,-0.7066379165117926,-0.7075747163434241,0.0005231515997909446,-0.0005254614928948771,-0.0005147295551322604,0.0,-0.0098066499999988,9.80665
7,118.976,0.9918533604887984,-0.000748366047304624,0.000564620583231391,-0.7066347864664653,-0.707577839962318,0.0005337571715045556,-0.0005350261154413907,-0.0005187166027309172,0.0,-0.0098066499999988,9.80665
8,119.084,0.9674134419551935,-0.0007533563355996265,0.00056257953663092,-0.7066300871638986,-0.707582529349839,0.0005484593147411949,-0.0005334869888611121,-0.0005185810197144739,0.0,-0.0098066499999988,9.80665
9,119.181,0.9898167006109979,-0.0007565710855498881,0.000562211828525277,-0.7066265117259997,-0.7075860968000985,0.0005576141518540681,-0.0005058575423900038,-0.0005082906528841702,0.0,-0.0098066499999988,9.80665
10,119.264,0.9938900203665988,-0.0007593218509712459,0.0005618971916926133,-0.7066234523306841,-0.7075891493606298,0.0005654476722702383,-0.00048221585107967297,-0.0004994854936376214,0.0,-0.0098066499999988,9.80665
11,119.381,0.9918533604887984,-0.0007630073621143083,0.0005619440062717929,-0.706619674678035,-0.7075929178251479,0.0005806570008862769,-0.00048608748917467945,-0.0005278740182984631,0.0,-0.0098066499999988,9.80665
12,119.474,0.9898167006109979,-0.0007658842247355117,0.0005621156166442925,-0.7066168185656034,-0.7075957667565609,0.0005938885873183618,-0.0004993606498464953,-0.0005616224487312161,0.0,-0.0098066499999988,9.80665
13,119.541,0.9837067209775967,-0.0007679568031830449,0.000562239249923405,-0.7066147609362172,-0.707597819212525,0.0006034210205543787,-0.0005089230344165117,-0.0005859358340967445,0.0,-0.0098066499999988,9.80665
14,119.676,0.9898167006109979,-0.0007694202856327302,0.0005632943382870403,-0.7066096875594586,-0.707602883043938,0.0005684864823706434,-0.0005281196846626707,-0.0005180632341653082,0.0,-0.0098066499999988,9.80665
15,119.77,0.9898167006109979,-0.0007703963762417207,0.00056404174691769,-0.7066061403098727,-0.7076064236610409,0.0005433049052953723,-0.0005414851200766861,-0.00046895445883274117,0.0,-0.0098066499999988,9.80665
16,119.875,0.9877800407331976,-0.0007733633212303833,0.0005649673783922707,-0.7066026221548688,-0.7076099328300126,0.000545343910102766,-0.0005685412883851312,-0.0004621466025301957,0.0,-0.0098066499999988,9.80665
17,119.98,0.9877800407331976,-0.0007768863050369822,0.0005659199017577652,-0.7065992356141635,-0.7076133099173061,0.0005563213925927406,-0.0005991905507913605,-0.0004695750990014273,0.0,-0.0098066499999988,9.80665
18,120.077,0.9939024390243902,-0.0007800532973316895,0.0005665938559091263,-0.7065960723819801,-0.7076164645912199,0.0005620728933203771,-0.0006066616884073681,-0.00047947063595131284,0.0,-0.0098066499999988,9.80665
19,120.194,0.9959266802443992,-0.0007836587165255285,0.0005669020661933193,-0.7065921718863528,-0.7076203551924592,0.0005582554623985804,-0.0005646067137089377,-0.0004988375870720395,0.0,-0.0098066499999988,9.80665
20,120.248,0.9898167006109979,-0.0007853227561534542,0.000567044317093716,-0.7065903716576017,-0.7076221508545698,0.000556493571203905,-0.0005451967253865853,-0.0005077761798969902,0.0,-0.0098066499999988,9.80665
21,120.381,0.9816700610997964,-0.0007952025056805486,0.0005607297276716749,-0.706585015587944,-0.7076274929040878,0.0005687292738524509,-0.0005597966962931796,-0.0005181987734652491,0.0,-0.0098066499999988,9.80665
22,120.478,0.9572301425661914,-0.0008046374105769115,0.0005535542183250981,-0.7065807536738996,-0.7076317435237214,0.0005840447632061582,-0.0005945097689843341,-0.0005213297960122087,0.0,-0.0098066499999988,9.80665
23,120.585,0.9857433808553971,-0.0008114319370435749,0.0005490859419438186,-0.7065763552813394,-0.7076361312258942,0.0005784972524270447,-0.0006061028013937201,-0.0005228835716843605,0.0,-0.0098066499999988,9.80665
24,120.669,0.9898167006109979,-0.0008120149671708002,0.0005501107488118282,-0.7065733006291902,-0.7076391798109474,0.0005446321256458779,-0.0005800963207148031,-0.000521604903973639,0.0,-0.0098066499999988,9.80665
25,120.75,0.9898167006109979,-0.0008125771747934818,0.0005510989554345518,-0.7065703550717605,-0.7076421195179631,0.000511976467678324,-0.0005550186429172761,-0.0005203719029668718,0.0,-0.0098066499999988,9.80665
26,120.868,0.9938900203665988,-0.0008117975914253406,0.0005544685040187242,-0.7065658972333709,-0.7076465688146144,0.0005080682555755281,-0.0005345443503437684,-0.0005357094661915189,0.0,-0.0098066499999988,9.80665
27,120.962,0.9898167006109979,-0.0008103915562470943,0.000558100438553778,-0.7065622641750975,-0.7076501950591649,0.000526396736254047,-0.0005261200840540411,-0.0005563412606530628,0.0,-0.0098066499999988,9.80665
28,121.083,0.9877800407331976,-0.0008083050830162286,0.0005629332479579357,-0.7065578637224127,-0.7076545873005128,0.0005327875028835651,-0.0005234457787601306,-0.0005692572461022262,0.0,-0.0098066499999988,9.80665
29,121.181,0.991869918699187,-0.0008061066615626885,0.0005671373178655101,-0.7065548074732967,-0.7076576379279302,0.0005063331294636518,-0.000536301690125725,-0.0005546342230861993,0.0,-0.0098066499999988,9.80665
30,121.278,0.9939024390243902,-0.0008039306729811232,0.0005712984891005585,-0.7065517824103962,-0.7076606574264964,0.00048014869862965327,-0.0005490264187222839,-0.0005401604145907427,0.0,-0.0098066499999988,9.80665
31,121.36,0.9959349593495935,-0.0008013618018054121,0.0005751151844320074,-0.7065489095871361,-0.707663525519775,0.000499035764951258,-0.0005420499888714407,-0.0005323094059713185,0.0,-0.0098066499999988,9.80665
32,121.482,0.991869918699187,-0.0007972560093906301,0.0005809100303338124,-0.7065445125990306,-0.7076679154604305,0.0005430985805578521,-0.0005247700272593652,-0.0005223347577266396,0.0,-0.0098066499999988,9.80665
33,121.575,0.9918533604887984,-0.0007962879469709363,0.0005828070821144851,-0.7065408549858094,-0.7076715667953852,0.0008114941930398438,-0.0005210607242770496,-0.0005166177032515406,0.0,-0.0098066499999988,9.80665
34,121.639,0.9938900203665988,-0.0007987458496057538,0.0005804702956738881,-0.7065378959726976,-0.7076745201786103,0.0013355301683768146,-0.0005321838301606467,-0.0005154097853228449,0.0,-0.0098066499999988,9.80665
35,121.796,0.9877551020408163,-0.0008047256836747151,0.0005747986783704881,-0.7065306445576242,-0.7076817578001526,0.00260475689219307,-0.0005591830371413375,-0.000512576736742631,0.0,-0.01066963520000292,9.805355522199994
36,121.875,0.9714285714285714,-0.0008038326990055534,0.0005767183503694261,-0.7065275777291948,-0.707684819044727,0.001963990572839989,-0.0005502273119054738,-0.0005213655950501558,0.0,-0.07884546599999734,9.703091776000003
37,121.976,0.9939024390243902,-0.0008026910350614352,0.0005791726145706002,-0.7065236568472789,-0.7076887327877904,0.0011447829999961172,-0.000538777587236837,-0.0005326019835192706,0.0,-0.16600697119999658,9.572349518200003
38,122.084,0.9939024390243902,-0.000801717764505151,0.0005816520136483275,-0.7065194816812882,-0.7076929001387213,0.00058286806902728,-0.0005256954137885552,-0.0005316593305906279,0.0,-0.19162510443548209,9.533922318346775
39,122.181,0.9918533604887984,-0.0008012369381883367,0.0005836485311568405,-0.7065157595085164,-0.707696615004105,0.0005772513405029336,-0.000512612639971439,-0.0005102223367430284,0.0,-0.10724046290323062,9.660499280645153
40,122.26,0.9979633401221996,-0.0008008453373736115,0.000585274560880269,-0.7065127280482176,-0.7076996405130257,0.0005726768914985682,-0.0005019575973781159,-0.0004927633417537437,0.0,-0.038514827016128406,9.763587734475806
41,122.377,0.9959266802443992,-0.0007977059961689074,0.0005894184394987035,-0.706507653776381,-0.707704706291269,0.0005635978304781027,-0.000513780920300631,-0.0005364605458453239,0.0,-0.0098066499999988,9.80665
42,122.441,0.9959266802443992,-0.0007954387496031618,0.0005920581736034245,-0.7065047524692298,-0.7077076030212205,0.0005581363331570868,-0.0005261802829668989,-0.0005753102235584734,0.0,-0.0098066499999988,9.80665
43,122.581,0.9877800407331976,-0.0007905474071704081,0.0005980855610782164,-0.7064984234428466,-0.7077139216828275,0.0005455876202322542,-0.000555539986584336,-0.000626393405720591,0.0,-0.0098066499999988,9.80665
44,122.675,0.9959266802443992,-0.0007873956217325958,0.0006026232010263924,-0.706494208059161,-0.7077181294242437,0.0005359949730336671,-0.0005795902502723027,-0.0005949359294027104,0.0,-0.0098066499999988,9.80665
45,122.773,0.9918533604887984,-0.0007841097177655148,0.000607353932036193,-0.7064898132974461,-0.707722516218486,0.0005259941280819482,-0.0006046639294363546,-0.0005621398370713013,0.0,-0.0098066499999988,9.80665
46,122.861,0.9959266802443992,-0.0007822462758461591,0.0006106738278229115,-0.7064858921774663,-0.7077264296713496,0.0005451961334310769,-0.0005839393551160732,-0.0005515553923433747,0.0,-0.0098066499999988,9.80665
47,122.966,0.9898167006109979,-0.0007804552462873758,0.0006142659334216573,-0.706481223589799,-0.7077310889068575,0.0005793165086445869,-0.0005420135560089869,-0.0005464293931218558,0.0,-0.0098066499999988,9.80665
48,123.089,0.9959266802443992,-0.0007805355841143781,0.0006169387318549543,-0.7064754019134973,-0.7077368978559343,0.0006062057181360557,-0.0005153671744220106,-0.0005422274896657054,0.0,-0.0098066499999988,9.80665
49,123.197,0.9877800407331976,-0.000784575065048461,0.0006164887079612455,-0.7064696474874467,-0.7077426378786575,0.0006059839543787406,-0.0005329035782314674,-0.0005418226972440296,0.0,-0.0098066499999988,9.80665
50,123.273,0.9653767820773931,-0.0007874176627428154,0.0006161720244804876,-0.7064655980765222,-0.7077466771539072,0.0006058278984013707,-0.0005452440105418243,-0.0005415378433176653,0.0,-0.0098066499999988,9.80665
51,123.37,0.9898167006109979,-0.0007882055437302921,0.0006183098467833206,-0.7064604596947555,-0.7077518034015583,0.0005992044368581065,-0.0005579826773947659,-0.0005435081672470816,0.0,-0.0098066499999988,9.80665
52,123.48,0.9877800407331976,-0.0007886870525805266,0.0006211028978028128,-0.7064546370074312,-0.7077576124449044,0.0005907614578542706,-0.0005719917550867863,-0.0005460810836027765,0.0,-0.0098066499999988,9.80665
53,123.573,0.9898167006109979,-0.0007887307167461381,0.0006234003900077665,-0.7064499331641853,-0.7077623055661387,0.0005790922688320311,-0.0005788680093828597,-0.0005480263978242871,0.0,-0.0098066499999988,9.80665
54,123.671,0.9938900203665988,-0.0007878405822215499,0.0006256567913462607,-0.7064455404744289,-0.7077666890525169,0.0005551243666559458,-0.000573317607631907,-0.0005494839278981089,0.0,-0.0098066499999988,9.80665
55,123.769,0.9877551020408163,-0.0007869504476969618,0.0006279131926847546,-0.7064411477846725,-0.7077710725388952,0.0005311564644798639,-0.000567767205880955,-0.0005509414579719303,0.0,-0.0098066499999988,9.80665
56,123.873,0.9938775510204082,-0.0007878714238588442,0.0006290167434787631,-0.7064368000651646,-0.7077754100435166,0.0005400653370095798,-0.0005735462998500119,-0.0005591856475745094,0.0,-0.0098066499999988,9.80665
57,123.941,0.9918367346938776,-0.0007889013300515195,0.000629442307967737,-0.7064340292959614,-0.7077781740310342,0.0005537644882066794,-0.0005800003708577698,-0.0005661116022917172,0.0,-0.0098066499999988,9.80665
58,124.081,0.9898373983739838,-0.0007911244670508595,0.0006300837000630346,-0.7064281140533416,-0.7077840749530103,0.0005854334814070054,-0.0005781250175025044,-0.0005697601890456983,0.0,-0.0098066499999988,9.80665
59,124.194,0.9898167006109979,-0.0007931773945279632,0.0006300106228188038,-0.7064228093600996,-0.7077893671857002,0.0006197138061096151,-0.0005384550011907537,-0.0005460044169933141,0.0,-0.0098066499999988,9.80665
60,124.261,0.9959100204498977,-0.0007943946170143874,0.0006299672938332863,-0.7064196640995049,-0.70779250505818,0.0006400393083669126,-0.0005149338410767091,-0.0005319191362188931,0.0,-0.0098066499999988,9.80665
61,124.378,0.9835728952772074,-0.0007959741672529991,0.0006306908257025445,-0.7064146666686774,-0.7077974903322506,0.0006577847474254663,-0.000541792754083869,-0.0005194253944791857,0.0,-0.0098066499999988,9.80665
62,124.476,0.9897330595482546,-0.0007971019891929859,0.0006315825855630966,-0.7064106577704297,-0.7078014893142202,0.0006663031456992024,-0.0005885771010071005,-0.0005132875358685855,0.0,-0.0098066499999988,9.80665
63,124.59,0.9836065573770492,-0.0007996363003087488,0.0006306368476216658,-0.7064058677443067,-0.7078062678665414,0.0006591030004781325,-0.0006153649445127401,-0.0005047859775855033,0.0,-0.0098066499999988,9.80665
64,124.662,0.9651639344262295,-0.0008024651214254673,0.0006280469597246531,-0.7064027152449665,-0.7078094131810249,0.0006373643752509724,-0.0006045165946246776,-0.0004980484572125899,0.0,-0.0098066499999988,9.80665
65,124.776,0.9918533604887984,-0.0008069440881936043,0.0006239463038877165,-0.7063977237876777,-0.7078143932622902,0.0006029448853079732,-0.0005873400406352472,-0.0004873807166221451,0.0,-0.0098066499999988,9.80665
66,124.875,0.9938775510204082,-0.0008094582200536058,0.0006215000135901408,-0.7063933351323192,-0.7078187723864738,0.0006002321484216938,-0.0005622576651194697,-0.0004924978432832523,0.0,-0.0098066499999988,9.80665
67,124.961,0.9857142857142858,-0.0008110447752194058,0.000619859161807551,-0.7063894993240589,-0.7078226000662806,0.0006096801601209437,-0.0005360534453780207,-0.0005031894112764976,0.0,-0.0098066499999988,9.80665
68,125.071,0.9938398357289527,-0.000813700372877679,0.0006179277262334314,-0.7063846242144078,-0.7078274639336907,0.0006149941655605223,-0.0005198058886846236,-0.0005130039988063185,0.0,-0.0098066499999988,9.80665
69,125.161,0.9897119341563786,-0.0008177092822244538,0.000616838037015194,-0.7063807268341923,-0.7078313496372033,0.0005994916420867555,-0.0005571433751148184,-0.0005097153220684771,0.0,-0.0098066499999988,9.80665
70,125.284,0.9938271604938271,-0.0008231881249983791,0.0006153487950836027,-0.7063754004145643,-0.7078366600986705,0.0005783048600059407,-0.0006081712732360845,-0.0005052207971934273,0.0,-0.0098066499999988,9.80665
71,125.371,0.9835728952772074,-0.000825225159672919,0.0006136507205351,-0.7063717962668218,-0.7078402558622864,0.0005652912825878192,-0.0005942226562183376,-0.0005267321213891344,0.0,-0.0098066499999988,9.80665
72,125.485,0.9918200408997955,-0.0008275089800839403,0.0006112904909029381,-0.7063671078313103,-0.707844933920404,0.0005486524896696215,-0.0005654536944348375,-0.0005600958393188182,0.0,-0.0098066499999988,9.80665
73,125.577,0.9877300613496932,-0.0008295582263314364,0.0006095919947490735,-0.7063633267943284,-0.7078487061256349,0.0005438856713130672,-0.0005501969981380561,-0.0005785994821318578,0.0,-0.0098066499999988,9.80665
74,125.669,0.9856850715746421,-0.0008320553441600693,0.0006083415601714199,-0.7063595514332758,-0.7078524716621173,0.0005579340841474102,-0.000552233498965801,-0.0005788082228162841,0.0,-0.0098066499999988,9.80665
75,125.756,0.9897959183673469,-0.0008344167490632331,0.0006071590839947257,-0.706355981254889,-0.7078560325498778,0.0005712189962842352,-0.0005541593204007338,-0.000579005618898296,0.0,-0.0098066499999988,9.80665
76,125.861,0.9877300613496932,-0.0008410066726736436,0.0006025681416324718,-0.7063506966179015,-0.7078613019893218,0.0005930625881981296,-0.0005713137907510872,-0.0005679322213008256,0.0,-0.0098066499999988,9.80665
77,125.94,0.9938650306748467,-0.0008476275463183145,0.000597707407087823,-0.7063462867275488,-0.7078656986737711,0.0006120803856433796,-0.0005908138288696762,-0.0005545717826007067,0.0,-0.0098066499999988,9.80665
78,126.071,0.9550102249488752,-0.0008549806307971736,0.0005933453590918622,-0.7063397589416515,-0.707872207249989,0.0006478588500370578,-0.0006006958832343422,-0.0005575710791163143,0.0,-0.0098066499999988,9.80665
79,126.22,0.983640081799591,-0.0008601674384496635,0.000591623934447191,-0.7063330217933393,-0.7078789249047328,0.0006922704392733676,-0.0005922641073508809,-0.0005830200912896545,0.0,-0.0098066499999988,9.80665
80,126.278,0.9877300613496932,-0.0008621864642472773,0.0005909538496861779,-0.7063303992792312,-0.7078815398307404,0.0007095581719962285,-0.0005889819395573185,-0.0005929264181759222,0.0,-0.0098066499999988,9.80665
81,126.35,0.9857142857142858,-0.000864407614888436,0.0005906780792479212,-0.7063274809095722,-0.707884449306763,0.0006825510575436072,-0.0005902284851763397,-0.0005870441966690127,0.0,-0.0098066499999988,9.80665
82,126.487,0.9897959183673469,-0.0008684394102181249,0.0005905326526801036,-0.7063221578903506,-0.7078897557622207,0.0005981013178825393,-0.0005962299602106214,-0.0005634507350623611,0.0,-0.0098066499999988,9.80665
83,126.563,0.9877551020408163,-0.0008706624764510567,0.0005902236618486467,-0.706319199022489,-0.7078927056126632,0.0005644930765938128,-0.0005934908754188567,-0.0005549850077757921,0.0,-0.0098066499999988,9.80665
84,126.704,0.9918367346938776,-0.0008746925776975769,0.0005880619523926642,-0.7063136681338636,-0.7078982209629481,0.0005942532958266167,-0.0005461900635062187,-0.0005714394928111994,0.0,-0.0098066499999988,9.80665
85,126.78,0.9918200408997955,-0.00087686483085173,0.0005868967756646167,-0.7063106869456685,-0.7079011937758677,0.0006102942650584852,-0.0005206945904185515,-0.0005803085769437609,0.0,-0.0098066499999988,9.80665
86,126.902,0.9856850715746421,-0.0008823798156580707,0.0005845598211125089,-0.7063062768681151,-0.7079055889544346,0.0005923890699632467,-0.0005703517002984878,-0.000590503801126033,0.0,-0.0098066499999988,9.80665
87,126.984,0.9918032786885246,-0.0008863225205742629,0.0005829348084710442,-0.7063033564013216,-0.7079084992379568,0.0005752760074101403,-0.0006142654689028821,-0.0005968861225992435,0.0,-0.0098066499999988,9.80665
88,127.066,0.9918032786885246,-0.000890113881300321,0.0005814377052885658,-0.7063004399408279,-0.7079114055791976,0.0005624919697972557,-0.0006410105518469832,-0.000598280664173463,0.0,-0.0098066499999988,9.80665
89,127.179,0.9897540983606558,-0.0008945970158082793,0.0005800013457589106,-0.7062964405457854,-0.707915391343089,0.0005660859913847212,-0.0005937446738070118,-0.0005757636406859646,0.0,-0.0098066499999988,9.80665
90,127.254,0.985655737704918,-0.000897572547561349,0.0005790480097879005,-0.7062937860800493,-0.707918036761601,0.0005684714039427736,-0.000562373515815879,-0.0005608187135924916,0.0,-0.0098066499999988,9.80665
91,127.38,0.985655737704918,-0.0009039874359167441,0.0005741949366848731,-0.7062887914900928,-0.7079230155834767,0.0005696502945107979,-0.0005227390708657184,-0.0005595905268790132,0.0,-0.0098066499999988,9.80665
92,127.45,0.9651639344262295,-0.0009079882982778403,0.0005704952452474711,-0.7062858515674256,-0.7079259465705605,0.0005694322082431866,-0.0005047536077683847,-0.0005662783524096614,0.0,-0.0098066499999988,9.80665
93,127.576,0.9856850715746421,-0.0009138173879284188,0.0005654241164005838,-0.7062805629737571,-0.7079312195233775,0.0005668656331071836,-0.0004897853511527734,-0.000573529693088588,0.0,-0.0098066499999988,9.80665
94,127.658,0.9897540983606558,-0.0009146233560930323,0.0005655812918251936,-0.7062771283024454,-0.707934644980473,0.0005604629320687199,-0.0005179324351441879,-0.0005678290680768977,0.0,-0.0098066499999988,9.80665
95,127.779,0.9918032786885246,-0.0009158126505798398,0.0005658132214151664,-0.706272060067949,-0.7079396996183823,0.0005510150439509882,-0.000559466546887611,-0.0005594171701937949,0.0,-0.0098066499999988,9.80665
96,127.89,0.985655737704918,-0.0009193724307645977,0.0005662132263678999,-0.7062675629025177,-0.7079441811908237,0.0005834307600744066,-0.0005738337468355895,-0.0005513325291685759,0.0,-0.0098066499999988,9.80665
97,127.981,0.9897540983606558,-0.0009226568426727459,0.00056656892000768,-0.7062638986041356,-0.7079478322431628,0.0006160969578195358,-0.0005820932833012193,-0.0005446500272955746,0.0,-0.0098066499999988,9.80665
98,128.071,0.9877049180327869,-0.0009256377805392093,0.000566818364619756,-0.7062602227146295,-0.7079514953009731,0.0006353993597718697,-0.0005920462519490722,-0.0005447301768746043,0.0,-0.0098066499999988,9.80665
99,128.177,0.9897540983606558,-0.0009283298810283361,0.0005667987661801952,-0.7062557345325089,-0.70795596919329,0.0006183096308788043,-0.0006092322428629126,-0.0005653084453336325,0.0,-0.0098066499999988,9.80665
100,128.287,0.985655737704918,-0.0009311235702151663,0.0005667784281768775,-0.7062510769850253,-0.707960611911732,0.0006005750065558088,-0.000627066761735769,-0.0005866632522250806,0.0,-0.0098066499999988,9.80665
101,128.378,0.9897330595482546,-0.0009332199126562817,0.0005665422898320147,-0.7062476680277119,-0.707964010025633,0.0006107254719827308,-0.0006097542676143375,-0.0005519806267693688,0.0,-0.0098066499999988,9.80665
102,128.479,0.9917864476386037,-0.0009355171896980443,0.0005662501511532183,-0.7062439453124713,-0.707967720901033,0.0006253925473429287,-0.0005861454377882146,-0.0005063136992975994,0.0,-0.0098066499999988,9.80665
103,128.571,0.9897330595482546,-0.0009384932133429109,0.0005648939905086113,-0.7062402897322831,-0.7079713646975455,0.0006289798554029042,-0.0005748568693787469,-0.000483037255876278,0.0,-0.0098066499999988,9.80665
104,128.687,0.9897330595482546,-0.0009454017000251898,0.0005592898699583345,-0.7062347352769756,-0.7079769007267476,0.0005985900083688643,-0.0005971215484971645,-0.0005191403552050472,0.0,-0.0098066499999988,9.80665
105,128.778,0.9856262833675564,-0.0009508212887155965,0.0005548935340094118,-0.7062303779025533,-0.7079812436462077,0.000574749697333548,-0.0006145878053917792,-0.0005474626141612272,0.0,-0.0098066499999988,9.80665
106,128.861,0.9671457905544147,-0.0009523997055706784,0.0005553642016642531,-0.7062274790308345,-0.7079841328204763,0.0005974980356339127,-0.0006032788006358617,-0.0005553224898372463,0.0,-0.0098066499999988,9.80665
107,128.981,0.9918032786885246,-0.0009545616389273184,0.0005562046319204755,-0.706223326282319,-0.7079882716730531,0.0006319755188639402,-0.0005859560176227876,-0.0005660445764242259,0.0,-0.0098066499999988,9.80665
108,129.073,0.997946611909651,-0.0009563256544148571,0.000556942287376734,-0.7062199301341711,-0.707991656386625,0.000641265522222962,-0.0005778785170987256,-0.0005703335255384437,0.0,-0.0098066499999988,9.80665
109,129.181,0.9917864476386037,-0.0009587139171560008,0.0005580863347635143,-0.7062153104903953,-0.7079962602798058,0.0006010869783349281,-0.0005839017191901812,-0.0005636533163487902,0.0,-0.0098066499999988,9.80665
110,129.274,0.9917864476386037,-0.0009607704767386521,0.0005590714866799084,-0.7062113324638106,-0.708000224743378,0.0005664887877646819,-0.0005890883654356006,-0.0005579009139910336,0.0,-0.0098066499999988,9.80665
111,129.362,0.9917864476386037,-0.0009621085571156873,0.0005603527095722733,-0.7062081868933141,-0.7080033595154197,0.0005704557448458588,-0.0005967843395461182,-0.0005631926893887376,0.0,-0.0098066499999988,9.80665
112,129.517,0.9897540983606558,-0.0009640865213378232,0.0005628269463649112,-0.7062030319331927,-0.708008496724079,0.0006003194728372719,-0.000612077486434157,-0.0005792039808301449,0.0,-0.0098066499999988,9.80665
113,129.58,0.9815950920245399,-0.0009648253929287419,0.0005638989574127056,-0.7062004761488205,-0.7080110441164602,0.000607743947045774,-0.0006205275091035358,-0.000584111892592238,0.0,-0.0098066499999988,9.80665
114,129.658,0.9876796714579056,-0.0009656621348733143,0.0005653057939052922,-0.7061967594674727,-0.708014748996168,0.0006112825355331789,-0.0006336690302522174,-0.0005882694229346496,0.0,-0.0098066499999988,9.80665
115,129.836,0.9938398357289527,-0.0009681372235678853,0.0005674140454567413,-0.7061904056499663,-0.7080210813886135,0.0006243633711480056,-0.0006273762715239636,-0.0005815803288887842,0.0,-0.0098066499999988,9.80665
116,129.846,0.9877551020408163,-0.0009683066520956376,0.0005674732858711648,-0.7061901629809212,-0.7080213231497803,0.0006253671017475426,-0.0006250740067722897,-0.0005803356762044131,0.0,-0.0098066499999988,9.80665
117,129.986,0.9857723577235772,-0.0009706786514841719,0.0005683026516730961,-0.7061867656142893,-0.708024707806115,0.0006394193301410725,-0.0005928423002488301,-0.0005629105386232031,0.0,-0.0098066499999988,9.80665
118,130.075,0.9939148073022313,-0.0009732630391491807,0.0005678982190639858,-0.7061842084212175,-0.7080272551143612,0.0006548022011193931,-0.0005825855699087284,-0.0005540102594027143,0.0,-0.0098066499999988,9.80665
119,130.172,0.9837728194726166,-0.0009787738275534611,0.0005651257320892393,-0.7061804266966174,-0.7080310215489605,0.0006877094197244072,-0.0005970181320816366,-0.0005497586682913862,0.0,-0.0098066499999988,9.80665
120,130.286,0.9486652977412731,-0.0009852504242347801,0.0005618673453354137,-0.7061759821955409,-0.7080354480803452,0.0007263838828272054,-0.0006139801123673216,-0.000544761952964671,0.0,-0.0098066499999988,9.80665
121,130.357,0.9897330595482546,-0.000986321207985304,0.0005621032753756715,-0.7061731248694411,-0.708038296198364,0.0007252290103291402,-0.0006124247978645493,-0.0005545575520491221,0.0,-0.0098066499999988,9.80665
122,130.493,0.9918367346938776,-0.0009873317990135013,0.0005633507031429048,-0.70616762033578,-0.7080437837905877,0.0007141526740701109,-0.0006051896050928603,-0.0005778537588231106,0.0,-0.0098066499999988,9.80665
123,130.587,0.9836734693877551,-0.000987999718925513,0.0005643514960389545,-0.7061639177332689,-0.708047474842227,0.0006778496247435827,-0.0006037118854506095,-0.0005883812590176796,0.0,-0.0098066499999988,9.80665
124,130.684,0.9877551020408163,-0.0009886444580551937,0.0005655859290605417,-0.7061602454019635,-0.7080511354848948,0.0005986984986550073,-0.0006073140113775331,-0.0005911326767076329,0.0,-0.0098066499999988,9.80665
125,130.782,0.9918864097363083,-0.0009892958439800257,0.0005668330881957536,-0.7061565352115725,-0.708054833866147,0.0005187313815758241,-0.0006109532726232911,-0.0005939124595284106,0.0,-0.0098066499999988,9.80665
126,130.863,0.9878542510121457,-0.0009892648702678497,0.000568913020311132,-0.7061536022271296,-0.708057757328532,0.0005248193490496348,-0.0006161432164455099,-0.0006071314869803331,0.0,-0.0098066499999988,9.80665
127,130.965,0.979757085020243,-0.0009890629170068873,0.0005718324464008737,-0.7061499470754301,-0.7080614005577661,0.0005531441808367769,-0.000623303174506873,-0.0006269033377369244,0.0,-0.0098066499999988,9.80665
128,131.065,0.9898785425101214,-0.0009891324724953035,0.000574427916954168,-0.7061462148558619,-0.7080651205063772,0.0005812095440924141,-0.0006257384135387858,-0.0006408878620713961,0.0,-0.0098066499999988,9.80665
129,131.194,0.9858012170385395,-0.0009910341738754308,0.0005759697677089513,-0.7061403929678348,-0.7080709226214777,0.0006194179831072634,-0.0005978325125761371,-0.0006223588157445218,0.0,-0.0098066499999988,9.80665
130,131.275,0.9939148073022313,-0.0009922282654396973,0.0005769379065549781,-0.7061367373637247,-0.7080745658100294,0.0006434093285351989,-0.0005803102026693526,-0.0006107242982834578,0.0,-0.0098066499999988,9.80665
131,131.388,0.9878048780487805,-0.0009955784142924805,0.0005754550790050394,-0.706132637290137,-0.7080786511217328,0.0008901928875961885,-0.0006047320801364522,-0.0006129476849558242,0.0,-0.0098066499999988,9.80665
132,131.474,0.9857433808553971,-0.000998473757879641,0.0005737450477536772,-0.7061297220528323,-0.7080815556494283,0.0011217889668658965,-0.0006333475394350203,-0.0006184271905182227,0.0,-0.0098066499999988,9.80665
133,131.582,0.9877800407331976,-0.0010007200129335128,0.0005725945339565667,-0.7061256240090145,-0.7080856401452688,0.0012326076637063537,-0.0006442828504574408,-0.0006326116877701485,0.0,-0.008467589357428815,9.809328121285139
134,131.687,0.9573170731707317,-0.0009999631262933683,0.0005735855747346731,-0.7061207150001844,-0.7080905357736019,0.0009594172726470992,-0.0006020132676197024,-0.0006618559599880268,0.0,-0.00433225502007862,9.81759878995984
135,131.765,0.979757085020243,-0.0009994008676464043,0.0005743217764555517,-0.7061170683079107,-0.708094172526078,0.0007564758392888973,-0.0005706130060831124,-0.0006835802764927255,0.0,-0.0012602923694771534,9.823742715261044
136,131.888,0.9898785425101214,-0.0010001968544173265,0.0005750874984406942,-0.7061120058405104,-0.7080992190660822,0.0006571513728704289,-0.0005989882946014442,-0.0006676835699472553,0.0,-0.003569620599999119,9.8191240588
137,131.99,0.9857723577235772,-0.0010013476127961867,0.0005756072394518021,-0.7061080083500828,-0.7081032032746187,0.0006391428329516181,-0.0006452329056337531,-0.0006398754033725675,0.0,-0.007570733799999272,9.8111218324
138,132.093,0.9918533604887984,-0.001002455028956061,0.0005763499581431866,-0.7061039891277617,-0.7081072089819238,0.0006226441224238716,-0.0006621670211657961,-0.0006149310571518524,0.0,-0.0098066499999988,9.80665
139,132.182,0.9898167006109979,-0.0010033534361690586,0.0005772250123058122,-0.7061005349011437,-0.7081106514203318,0.0006101935744352126,-0.000644931085324583,-0.0005967354164957762,0.0,-0.0098066499999988,9.80665
140,132.27,0.9877800407331976,-0.0010042417489189888,0.0005780902343991949,-0.7060971194860606,-0.7081140551796565,0.0005978829202441758,-0.0006278888116838284,-0.0005787442212403253,0.0,-0.0098066499999988,9.80665
141,132.385,0.9857433808553971,-0.0010043501898766073,0.0005799795975092457,-0.706092247276449,-0.7081189117531527,0.0005932300616650428,-0.0006058354783489071,-0.0005579072538853074,0.0,-0.0098066499999988,9.80665
142,132.47,0.9837067209775967,-0.0010041680344107522,0.0005815651767379715,-0.706088544167343,-0.7081226032043969,0.0005926410527338823,-0.0005895894782404503,-0.0005431725525757282,0.0,-0.0098066499999988,9.80665
143,132.576,0.9857723577235772,-0.001004199875641763,0.0005832322750641333,-0.706083958832292,-0.7081271739449687,0.0005993564716643732,-0.0005893764512923808,-0.0005240304550776897,0.0,-0.0098066499999988,9.80665
144,132.667,0.9898167006109979,-0.0010048466115318933,0.0005839215877479013,-0.70608010047171,-0.7081310196413518,0.0006229382157067031,-0.00063713541991698,-0.0005057627179970352,0.0,-0.0098066499999988,9.80665
145,132.76,0.9857433808553971,-0.0010055075613976307,0.0005846260501609827,-0.7060761573119944,-0.7081349498585345,0.0006470382398378705,-0.0006859440362036484,-0.00048709349218933727,0.0,-0.0098066499999988,9.80665
146,132.875,0.9918533604887984,-0.0010096842769905827,0.0005826743660339389,-0.7060715558458631,-0.7081395335438462,0.0006585651019823748,-0.0006822855015431216,-0.0005385255783302517,0.0,-0.0098066499999988,9.80665
147,132.954,0.9613034623217923,-0.0010137843096623667,0.0005802994377892459,-0.7060684954032876,-0.7081425811208624,0.0006597882962363012,-0.0006563192676195511,-0.0006011587382484984,0.0,-0.0098066499999988,9.80665
148,133.086,0.9857142857142858,-0.001018949003625636,0.0005781224016440902,-0.7060631780961832,-0.7081478772266259,0.0006577483414350647,-0.0006300525295166645,-0.0006557610388527245,0.0,-0.0098066499999988,9.80665
149,133.147,0.9897959183673469,-0.001019335240668403,0.0005792416530961898,-0.7060604792120878,-0.7081505666638017,0.0006519601262832843,-0.0006382273207138085,-0.0006216075406952211,0.0,-0.0098066499999988,9.80665
150,133.276,0.9836734693877551,-0.0010201520370375337,0.0005816085946916147,-0.7060547717358859,-0.7081562541620916,0.0006397194745688576,-0.0006555149939012198,-0.0005493812904932515,0.0,-0.0098066499999988,9.80665
151,133.351,0.9877800407331976,-0.001021498020071296,0.0005822566881342157,-0.7060512657495377,-0.7081597472311403,0.0006372199696120567,-0.0006438050864967463,-0.0005516407034900996,0.0,-0.0098066499999988,9.80665
152,133.448,0.9857142857142858,-0.001023706480251162,0.0005827040392944661,-0.7060466305801707,-0.7081643649950213,0.0006364660198145026,-0.0006169778280596951,-0.0005783194884484885,0.0,-0.0098066499999988,9.80665
153,133.553,0.9938775510204082,-0.0010260950180524659,0.0005831674787227227,-0.7060416106299267,-0.7081693661132263,0.0006359087825028863,-0.0005891898259056789,-0.0006068929222031594,0.0,-0.0098066499999988,9.80665
154,133.646,0.9918367346938776,-0.001028116458478382,0.000582628872115847,-0.7060370504042212,-0.7081739100674029,0.0006472244903516876,-0.0006216781822821247,-0.0006182582045976923,0.0,-0.0098066499999988,9.80665
155,133.744,0.9857433808553971,-0.0010302465784970897,0.0005820613081645153,-0.7060322450050907,-0.7081786983201911,0.0006591485695902124,-0.0006559132244852697,-0.0006302345236801064,0.0,-0.0098066499999988,9.80665
156,133.84,0.9877049180327869,-0.001033059580804591,0.0005811177787262352,-0.7060278794336894,-0.7081830473178827,0.00066692148797184,-0.0006561882994813651,-0.0006335187166358431,0.0,-0.0098066499999988,9.80665
157,133.943,0.9979508196721312,-0.0010370796774391558,0.0005795708410555128,-0.7060236669828244,-0.7081872422937555,0.000669870494147613,-0.0006106006664096219,-0.0006253890657512037,0.0,-0.0098066499999988,9.80665
158,134.046,0.983640081799591,-0.0010410997740737194,0.0005780239033847909,-0.7060194545319595,-0.7081914372696283,0.000672819500323385,-0.0005650130333378912,-0.0006172594148665665,0.0,-0.0098066499999988,9.80665
159,134.163,0.9897750511247444,-0.0010462811354366081,0.0005769259988032652,-0.7060158980114966,-0.7081949760805887,0.0006905066506338461,-0.000600554969943399,-0.0005661171973250477,0.0,-0.0098066499999988,9.80665
160,134.317,0.9815950920245399,-0.0010540030465896987,0.0005743184980799191,-0.7060110905453594,-0.7081997593843177,0.0007028964550700016,-0.0006381771157030008,-0.0005124565907754018,0.0,-0.0098066499999988,9.80665
161,134.386,0.9652351738241309,-0.0010603344040542044,0.0005694496846914088,-0.7060085346812063,-0.7082023017086133,0.0006737768356688346,-0.0006258741212077451,-0.0005318842469714564,0.0,-0.0098066499999988,9.80665
162,134.48,0.9918367346938776,-0.0010689597316145463,0.0005628168084809737,-0.7060050527793166,-0.7082057651649002,0.0006341066295281104,-0.0006091135200113081,-0.0005583509090356494,0.0,-0.0098066499999988,9.80665
163,134.552,0.9836065573770492,-0.0010752078977083962,0.000558132505268223,-0.7060023696403893,-0.7082084343426919,0.0006058790311217297,-0.0005984937241300907,-0.0005779983499087381,0.0,-0.0098066499999988,9.80665
164,134.649,0.9938524590163934,-0.0010754156579629,0.0005608957360931749,-0.7059983849705112,-0.708212404038001,0.0006172764711081981,-0.0006349874120205639,-0.0005901559640187768,0.0,-0.0098066499999988,9.80665
165,134.748,0.983640081799591,-0.0010756277019339916,0.0005637159407495684,-0.7059943181424913,-0.708216455582698,0.0006289089098572717,-0.0006722335470840293,-0.0006025642505846902,0.0,-0.0098066499999988,9.80665
166,134.84,0.9856850715746421,-0.0010749025763937261,0.0005669974194227535,-0.7059908641229871,-0.7082198972310574,0.0006390528777908341,-0.0006889249249983593,-0.0006054079170463233,0.0,-0.0098066499999988,9.80665
167,134.957,0.9877300613496932,-0.0010725842535549144,0.0005721708610368934,-0.7059869639392445,-0.7082237844548354,0.000650945088924154,-0.0006830197639258104,-0.0005958720132980026,0.0,-0.0098066499999988,9.80665
168,135.049,0.9795501022494888,-0.0010708131371048848,0.0005762922879338885,-0.7059838694219124,-0.7082268685639311,0.0006607305199163549,-0.0006782604596011473,-0.0005877597604458194,0.0,-0.0098066499999988,9.80665
169,135.14,0.9856850715746421,-0.0010701893175530531,0.000581531415554111,-0.7059802056299778,-0.7082305173278816,0.0006798601289297999,-0.000671030153456492,-0.0005663759166411348,0.0,-0.0098066499999988,9.80665
170,135.263,0.9897750511247444,-0.0010693461328840934,0.0005886128737660627,-0.7059752534716486,-0.7082354491736607,0.0007057166334205101,-0.0006612573220741518,-0.0005374724794106161,0.0,-0.0098066499999988,9.80665
171,135.36,0.983640081799591,-0.0010666960299002884,0.0005943164322837161,-0.7059715985557952,-0.7082390916158438,0.0006980553997920874,-0.0006575797451660037,-0.0005409804063909244,0.0,-0.0098066499999988,9.80665
172,135.493,0.9857142857142858,-0.00106138387231816,0.0006022373886426955,-0.7059667989355639,-0.7082438771305581,0.0006638318253305553,-0.0006559443281730639,-0.0005680291858058584,0.0,-0.0098066499999988,9.80665
173,135.588,0.9897750511247444,-0.001057730774745567,0.0006075494864009934,-0.7059630305012955,-0.7082476343681842,0.0006551065573105169,-0.0006505861561615551,-0.0005754613465039564,0.0,-0.0098066499999988,9.80665
174,135.667,0.9877300613496932,-0.0010548545019070548,0.0006115716021466075,-0.7059595078341993,-0.7082511464423009,0.0006658255497821087,-0.0006413394594527933,-0.0005680483325748182,0.0,-0.0098066499999988,9.80665
175,135.771,0.9590163934426229,-0.0010510680161449637,0.0006168665393307057,-0.7059548703990344,-0.7082557699322773,0.0006799366284788845,-0.0006291665928994897,-0.000558289428161778,0.0,-0.0098066499999988,9.80665
176,135.861,0.9836065573770492,-0.0010489020043042102,0.0006206134374212364,-0.7059515488253617,-0.7082590806393341,0.0006685523797231083,-0.0006001923962373851,-0.0005757781299873683,0.0,-0.0098066499999988,9.80665
177,135.979,0.9877551020408163,-0.0010467198162843942,0.0006250314679595008,-0.7059476033746286,-0.7082630125540547,0.0006396549689375687,-0.0005512854188265066,-0.0006140636090482354,0.0,-0.0098066499999988,9.80665
178,136.049,0.9857142857142858,-0.0010454252979675547,0.0006276523335330467,-0.7059452628530073,-0.708265345045838,0.0006225124371156435,-0.0005222728051081974,-0.0006367753339148448,0.0,-0.0098066499999988,9.80665
179,136.148,0.9918200408997955,-0.0010453249183904128,0.0006307208621214064,-0.7059406015873174,-0.7082699883784669,0.0006262231559724538,-0.0005549736532296598,-0.0006541272054471231,0.0,-0.0098066499999988,9.80665
180,136.243,0.9897750511247444,-0.0010452455386603993,0.0006336591613755034,-0.705936115425906,-0.7082744572669892,0.0006300576779725825,-0.0005870752331583783,-0.0006706333762674333,0.0,-0.0098066499999988,9.80665
181,136.348,0.9918200408997955,-0.0010449807388457821,0.000636903319433482,-0.7059309035348168,-0.7082796493901032,0.0006508274074361877,-0.0006359353275650562,-0.0006746644218196246,0.0,-0.0098066499999988,9.80665
182,136.473,0.9857142857142858,-0.0010444245971296738,0.000640760737727748,-0.7059243540016693,-0.7082861744690129,0.0006980452126734327,-0.0007123053730168658,-0.0006601263917852708,0.0,-0.0098066499999988,9.80665
183,136.587,0.9898167006109979,-0.0010436000208278408,0.0006441170514075461,-0.705918437009512,-0.7082920698797337,0.00071208318254811,-0.0007382004412329044,-0.0006544586274294217,0.0,-0.0098066499999988,9.80665
184,136.66,0.9918533604887984,-0.0010426490616563845,0.0006460508490499452,-0.7059147229278658,-0.7082957711022801,0.0006823934943033066,-0.0006964742730137922,-0.0006609450959863945,0.0,-0.0098066499999988,9.80665
185,136.745,0.991869918699187,-0.0010415417804293466,0.0006483025312363002,-0.7059103983122504,-0.7083000807449711,0.0006478233093607277,-0.000647889008649073,-0.0006684978333472532,0.0,-0.0098066499999988,9.80665
186,136.853,0.9959266802443992,-0.0010406454809276733,0.0006509633157527911,-0.7059047206670438,-0.7083057380674758,0.0006273467523730084,-0.0006102959074232023,-0.0006692649480620648,0.0,-0.0098066499999988,9.80665
187,136.951,0.9877551020408163,-0.0010403311335351495,0.0006531821173780517,-0.7058993900575244,-0.7083110489673345,0.0006316796608022131,-0.0005997722417268215,-0.0006613329668263236,0.0,-0.0098066499999988,9.80665
188,137.054,0.9876796714579056,-0.0010404361202406526,0.0006551591048780288,-0.705893798502987,-0.7083166195121688,0.0006371179538756975,-0.0005926943061448025,-0.0006539763605009444,0.0,-0.0098066499999988,9.80665
189,137.185,0.9650924024640657,-0.001047145141446268,0.0006523116294932538,-0.7058868534243069,-0.7083235334226781,0.0006573906083092621,-0.0006438428808762654,-0.0006594220167172588,0.0,-0.0098066499999988,9.80665
190,137.283,0.9898167006109979,-0.0010521641038748958,0.0006501814570680027,-0.7058816578692637,-0.7083287056610743,0.0006725564108626133,-0.000682106700141018,-0.0006634958664057986,0.0,-0.0098066499999988,9.80665
191,137.358,0.9857433808553971,-0.001053047710927474,0.0006505025489549364,-0.7058778314446174,-0.7083325172221578,0.0006773524780207906,-0.0006784914446205481,-0.0006582746681959251,0.0,-0.0098066499999988,9.80665
192,137.468,0.9857723577235772,-0.0010530723105554197,0.0006518123295630241,-0.7058722837370598,-0.7083380444112287,0.0006814590144722929,-0.0006590463713383763,-0.0006470321249833955,0.0,-0.0098066499999988,9.80665
193,137.574,0.9979591836734694,-0.001053183317187817,0.0006529332016199538,-0.7058670268583528,-0.7083432817865528,0.000683382782246178,-0.0006427063441757729,-0.0006350733109727667,0.0,-0.0098066499999988,9.80665
194,137.671,0.9897959183673469,-0.0010535437395481479,0.0006535400229325683,-0.7058624804737987,-0.7083478111211629,0.0006791142532454126,-0.000634863380885994,-0.0006207940806191244,0.0,-0.0098066499999988,9.80665
195,137.775,0.9835728952772074,-0.0010539301717695337,0.0006541906354739283,-0.7058576059996378,-0.7083526673149715,0.0006745376860693326,-0.0006264544305546818,-0.0006054843903430491,0.0,-0.0098066499999988,9.80665
196,137.883,0.9958932238193019,-0.0010551067525257775,0.0006548290616322121,-0.7058521302433377,-0.7083581213649502,0.0006853709773783926,-0.0006364437168456578,-0.000602065870020118,0.0,-0.0098066499999988,9.80665
197,137.966,0.9938398357289527,-0.0010561998956254658,0.0006553106367651919,-0.7058478211892638,-0.7083624130738125,0.0006974944767388226,-0.0006486826983276737,-0.0006024797588789594,0.0,-0.0098066499999988,9.80665
198,138.077,0.9959016393442623,-0.0010575927638903932,0.0006559453485026737,-0.7058422091875437,-0.7083680024779905,0.0007004292312623643,-0.0006658758548834157,-0.0006096014058202542,0.0,-0.0098066499999988,9.80665
199,138.18,0.9836065573770492,-0.0010586953243196648,0.0006565086724406634,-0.7058374162015599,-0.7083727761429015,0.0006666277770409405,-0.0006841001417617722,-0.0006342763730521452,0.0,-0.0098066499999988,9.80665
200,138.266,0.985655737704918,-0.0010596159087557554,0.0006569790205830624,-0.7058334142909327,-0.708376761921371,0.0006384052036133514,-0.0006993165366310756,-0.0006548787728768254,0.0,-0.0098066499999988,9.80665
201,138.371,0.9958847736625515,-0.0010656145585983508,0.0006527463695728553,-0.7058274375370626,-0.7083827119451184,0.0006386102969668445,-0.0006845474236618626,-0.0006560743419382437,0.0,-0.0098066499999988,9.80665
202,138.461,0.9897119341563786,-0.0010727571333456897,0.0006471453240217995,-0.7058218669133424,-0.7083882567701573,0.0006530139159063356,-0.0006582003711427299,-0.0006472650332372615,0.0,-0.0098066499999988,9.80665
203,138.569,0.971252566735113,-0.0010798277220671194,0.0006416874065328269,-0.7058153613013394,-0.7083947331359535,0.0006757139368076175,-0.0006308244507625176,-0.0006391535034818367,0.0,-0.0098066499999988,9.80665
204,138.661,0.9876796714579056,-0.0010802267162110025,0.0006417732442954102,-0.7058104909137024,-0.7083995850277741,0.000715349755767941,-0.000623398404344019,-0.0006414627795197427,0.0,-0.0098066499999988,9.80665
205,138.767,0.9918032786885246,-0.0010806864268550415,0.0006418721443262126,-0.7058048793801207,-0.7084051752509589,0.000761017112396131,-0.0006148423073835767,-0.0006441234671286339,0.0,-0.0098066499999988,9.80665
206,138.909,0.9917864476386037,-0.001080428599466055,0.0006435218901383703,-0.705798413430612,-0.7084116162870613,0.000780214813901519,-0.0006379752866997991,-0.000657977265689847,0.0,-0.0098066499999988,9.80665
207,138.982,0.9876543209876543,-0.0010801706193943705,0.0006445878362819004,-0.7057952403372241,-0.7084147770946674,0.0007840569510933498,-0.0006548344947034072,-0.0006665765821276989,0.0,-0.0098066499999988,9.80665
208,139.051,0.9958847736625515,-0.0010799516488620331,0.0006456009581849401,-0.7057922377008092,-0.7084177680598572,0.0007872293439816228,-0.0006702469348298964,-0.0006735839097634545,0.0,-0.0098066499999988,9.80665
209,139.185,0.9897119341563786,-0.0010811446306172338,0.0006479317388625208,-0.7057861845708605,-0.7084237947091664,0.0007635145462062445,-0.0006661546051101502,-0.0006142757998582792,0.0,-0.0098066499999988,9.80665
210,139.275,0.9876543209876543,-0.0010819458870199806,0.0006494971885713436,-0.7057821190358204,-0.7084278424587024,0.0007475866969541259,-0.0006634060254476344,-0.0005744419946980896,0.0,-0.0098066499999988,9.80665
211,139.391,0.9917864476386037,-0.001080972402312687,0.0006510278287568505,-0.7057777021677257,-0.7084322428739186,0.000744715647306293,-0.0006626764744786281,-0.0005781331665015627,0.0,-0.0098066499999988,9.80665
212,139.479,0.9897959183673469,-0.0010798157767976913,0.000652087496755606,-0.7057745229957817,-0.7084354109129337,0.0007462177907914991,-0.0006627092988477375,-0.0005924028187648101,0.0,-0.0098066499999988,9.80665
213,139.544,0.9918367346938776,-0.0010789614511332063,0.0006528702060728685,-0.7057721747437775,-0.7084377509417517,0.0007473273285930714,-0.0006627335441203752,-0.0006029429028228875,0.0,-0.0098066499999988,9.80665
214,139.702,0.9857142857142858,-0.0010767183310424783,0.0006569008032532577,-0.7057645546163704,-0.7084453419434781,0.0007696163559825537,-0.0006805898868204913,-0.0006268063288492454,0.0,-0.0098066499999988,9.80665
215,139.783,0.9897959183673469,-0.0010755678335511644,0.0006589740707397886,-0.7057606418518054,-0.7084492397466878,0.0007811069837771324,-0.0006898022023960923,-0.0006390343730648323,0.0,-0.0098066499999988,9.80665
216,139.857,0.9898373983739838,-0.0010778460829521373,0.0006584043145611612,-0.7057570791021308,-0.7084527859873523,0.0007698968602344422,-0.0007012316980399173,-0.0006453550176229319,0.0,-0.0098066499999988,9.80665
217,139.984,0.967280163599182,-0.001083460177747798,0.000656165357161774,-0.7057509707314991,-0.708458864570975,0.0007395466747693723,-0.0007223895564675328,-0.0006537197832949457,0.0,-0.0098066499999988,9.80665
218,140.103,0.9897750511247444,-0.001087300794179915,0.0006554501062965994,-0.7057453454432349,-0.7084644631161793,0.0007166161399615543,-0.000716673782869567,-0.000653322442621362,0.0,-0.0098066499999988,9.80665
219,140.178,0.9938775510204082,-0.0010886070045910566,0.0006560844956349112,-0.7057418772459255,-0.7084679153750024,0.0007064868982452609,-0.0006930258638772478,-0.0006466086913225436,0.0,-0.0098066499999988,9.80665
220,140.265,0.9897959183673469,-0.0010901222086679811,0.000656820387267353,-0.7057378541370466,-0.7084719199952372,0.0006947369778543605,-0.0006655942778461568,-0.0006388207398159141,0.0,-0.0098066499999988,9.80665
221,140.382,0.9857433808553971,-0.0010912167947356379,0.0006579612999043082,-0.7057317926120634,-0.7084779553019667,0.0006993015516862312,-0.0006485634399973877,-0.0006460284200112387,0.0,-0.0098066499999988,9.80665
222,140.463,0.9877800407331976,-0.0010916726110287748,0.0006587995964747383,-0.7057273876825739,-0.7084823416467482,0.0007089827389282877,-0.0006431318522121779,-0.0006566797149827624,0.0,-0.0098066499999988,9.80665
223,140.584,0.9939024390243902,-0.0010928905002380654,0.0006591467697916377,-0.7057207571622615,-0.7084889441440858,0.0007247459050267929,-0.0006411181017756459,-0.0006656573817599566,0.0,-0.0098066499999988,9.80665
224,140.679,0.9857142857142858,-0.0010948826125310317,0.0006576732656269552,-0.705715454312217,-0.7084942244898171,0.0007396320649422698,-0.00065130514325574,-0.0006593300681561234,0.0,-0.0098066499999988,9.80665
225,140.794,0.9857142857142858,-0.0010972941168856754,0.0006558895500591816,-0.7057090350726897,-0.7085006164872815,0.0007576521532610066,-0.000663636825047434,-0.0006516706885304297,0.0,-0.0098066499999988,9.80665
226,140.852,0.9918200408997955,-0.001099570426124812,0.0006555323995255335,-0.7057063748328204,-0.7085032630007607,0.0007525508506223562,-0.0006640245222952218,-0.0006554093000013378,0.0,-0.0098066499999988,9.80665
227,140.962,0.9876796714579056,-0.0011040772324381874,0.0006549521024478678,-0.7057014328389555,-0.7085081789641583,0.0007403371464461108,-0.0006637163918931039,-0.0006638598486315444,0.0,-0.0098066499999988,9.80665
228,141.082,0.9938398357289527,-0.0011103068216522477,0.0006527604753338814,-0.7056957470154032,-0.7085138344860634,0.0007235694058527749,-0.0006694437588088285,-0.0006705342031117262,0.0,-0.0098066499999988,9.80665
229,141.164,0.9959100204498977,-0.0011169292289445903,0.0006484550656324783,-0.7056913310528111,-0.7085182263110514,0.0007059075726410545,-0.0006842809631803336,-0.000670511190297215,0.0,-0.0098066499999988,9.80665
230,141.308,0.9857142857142858,-0.0011281507601131771,0.0006412068331316266,-0.705683538910912,-0.7085259762543025,0.0006788715815468287,-0.0007089617276740741,-0.0006724868149068519,0.0,-0.0098066499999988,9.80665
231,141.384,0.9551020408163265,-0.0011298582122294804,0.0006406091691345965,-0.7056790413049743,-0.7085304535444854,0.0007057125413050516,-0.00070778673187071,-0.000694353891547857,0.0,-0.0098066499999988,9.80665
232,141.491,0.9897750511247444,-0.001132262125077434,0.0006397677211387776,-0.7056727091492462,-0.7085367570977692,0.0007435017872804577,-0.0007061324614633414,-0.0007251404336608619,0.0,-0.0098066499999988,9.80665
233,141.589,0.9918032786885246,-0.0011340929035562944,0.00063893494936723,-0.7056671102925617,-0.708542331124429,0.0007572667325375638,-0.0006968296959484201,-0.0007328188939175895,0.0,-0.0098066499999988,9.80665
234,141.672,0.9795081967213115,-0.0011351879286078633,0.0006381533803365655,-0.7056626148606597,-0.7085468072050966,0.0007433249214868196,-0.0006793871252014665,-0.0007141240321904951,0.0,-0.0098066499999988,9.80665
235,141.79,0.9959016393442623,-0.0011367447112112983,0.0006370422340038137,-0.7056562237647028,-0.7085531707896602,0.0007235040334869668,-0.0006545892535371235,-0.0006875457950363134,0.0,-0.0098066499999988,9.80665
236,141.862,0.9877049180327869,-0.0011387890872317189,0.0006375501824372919,-0.7056526925494876,-0.708556683773947,0.0007242601434700184,-0.0006700868653133466,-0.000689550344366579,0.0,-0.0098066499999988,9.80665
237,141.981,0.9938650306748467,-0.0011424597483553744,0.0006387058516607585,-0.7056469544521853,-0.7085623913545545,0.0007289353967644268,-0.0007038658335804893,-0.000697720927186309,0.0,-0.0098066499999988,9.80665
238,142.087,0.9856850715746421,-0.0011457200567034063,0.000639685637363709,-0.7056418944213873,-0.7085674244014574,0.0007280850992538056,-0.0007214761602226657,-0.0006937519854400358,0.0,-0.0098066499999988,9.80665
239,142.176,0.9938775510204082,-0.0011484428356617622,0.0006404305716536573,-0.7056377260973696,-0.708571570380844,0.0007195190689526521,-0.0007167235654778792,-0.0006728093074634726,0.0,-0.0098066499999988,9.80665
240,142.287,0.9938900203665988,-0.0011518386611042068,0.0006413596470040426,-0.705632527401123,-0.7085767412090676,0.0007088355929590767,-0.0007107961720321331,-0.0006466897877398889,0.0,-0.0098066499999988,9.80665
241,142.396,0.9938524590163934,-0.0011525509616762963,0.0006404604917869693,-0.7056271988957726,-0.7085820471488877,0.0007464541208121372,-0.0006933281259830194,-0.000659142564277188,0.0,-0.0098066499999988,9.80665
242,142.463,0.9897540983606558,-0.00115277052017801,0.0006397570156252235,-0.7056239049740516,-0.7085853275996253,0.0007735819642086954,-0.0006816213787255065,-0.0006699685215582673,0.0,-0.0098066499999988,9.80665
243,142.586,0.9918032786885246,-0.0011560072370005517,0.0006367900505485715,-0.7056180404110092,-0.7085911649775906,0.000787850919878095,-0.0006694996845908487,-0.0006789369077887348,0.0,-0.0098066499999988,9.80665
244,142.68,0.9815573770491803,-0.0011639256398245077,0.000631303145967427,-0.7056139091966964,-0.7085952706995198,0.0007304796457756194,-0.0006782398908399065,-0.0006648348087910533,0.0,-0.0098066499999988,9.80665
245,142.784,0.9754601226993865,-0.0011726864259276072,0.0006252325281329696,-0.7056093384914993,-0.7085998132003776,0.0006670050446409707,-0.000687909906264395,-0.0006492324864957475,0.0,-0.0098066499999988,9.80665
246,142.896,0.9938775510204082,-0.001175411402009087,0.0006252431887593512,-0.7056037331151478,-0.7086053903354582,0.0006966097425317806,-0.000696675563707992,-0.0006648568786216887,0.0,-0.0098066499999988,9.80665
247,142.988,0.9938900203665988,-0.001176663497321066,0.0006262144890798279,-0.7055990282914633,-0.708610072274437,0.0007353275588874392,-0.0007036336513898187,-0.0006824577101936409,0.0,-0.0098066499999988,9.80665
248,143.117,0.9938775510204082,-0.0011766229495818613,0.0006300182493939848,-0.7055925268650093,-0.7086165426922855,0.0007407317651317519,-0.0006907539511938431,-0.0006772370092914524,0.0,-0.0098066499999988,9.80665
249,143.197,0.9938650306748467,-0.0011755670079679798,0.0006337784743003185,-0.7055885498090025,-0.7086205011377803,0.0007160293947284413,-0.0006697762243372073,-0.0006568404351128258,0.0,-0.0098066499999988,9.80665
250,143.292,0.983640081799591,-0.0011743130773014955,0.000638243741376589,-0.7055838270549946,-0.7086252017918054,0.0006866953298745148,-0.0006448651736949564,-0.0006326195032757108,0.0,-0.0098066499999988,9.80665
251,143.366,0.9774590163934426,-0.0011720860690534946,0.000642214533502745,-0.7055797368632235,-0.7086292744317397,0.0006842472428372999,-0.0006598823431404245,-0.0006420029563403264,0.0,-0.0098066499999988,9.80665
252,143.493,0.9795081967213115,-0.0011679287725788752,0.0006491613620907703,-0.7055726068852423,-0.7086363741965747,0.000685516665906453,-0.0006948854983501446,-0.0006656825525011202,0.0,-0.0098066499999988,9.80665
253,143.579,0.9754601226993865,-0.001164840995597067,0.0006540181309334618,-0.7055681145960275,-0.708640847686227,0.0006831352366134523,-0.0007163860485889021,-0.0006808009394444526,0.0,-0.0098066499999988,9.80665
254,143.694,0.9753593429158111,-0.0011600315484782346,0.0006608935988706281,-0.7055629458753498,-0.7086459954108564,0.0006718607328366506,-0.0007396393863018567,-0.0006987294019199879,0.0,-0.0098066499999988,9.80665
255,143.768,0.9876796714579056,-0.0011569367738104633,0.0006653178130215017,-0.7055596199159573,-0.7086493078597482,0.0006646058347541845,-0.0007546024036128063,-0.0007102659777738144,0.0,-0.0098066499999988,9.80665
256,143.914,0.9815195071868583,-0.001153275225710865,0.0006724067650812992,-0.7055524175863797,-0.7086564779531264,0.0006848382313672662,-0.0007250733658267009,-0.000681465529220786,0.0,-0.014299736653384413,9.80665
257,143.976,0.973305954825462,-0.0011520001345511112,0.0006752294175433884,-0.7055492857656804,-0.708659595445682,0.0006973846649483893,-0.000705773936374955,-0.0006633327728456503,0.0,-0.016722096414341005,9.80665
258,144.077,0.9876796714579056,-0.0011516284077735584,0.0006788722812777374,-0.705544148662293,-0.7086647071282349,0.0007188979096244989,-0.0006839788169600065,-0.0006379701555706578,0.0,-0.018554181799999316,9.80665
259,144.173,0.9527720739219713,-0.0011557178521098195,0.000679846117512005,-0.7055391739997388,-0.7086696522103373,0.0007421457997988886,-0.0006883865804411468,-0.0006247424394823622,0.0,-0.014788428199999175,9.80665
260,144.276,0.9938524590163934,-0.0011601054850955998,0.0006808909626383546,-0.7055338366013733,-0.7086749578713428,0.0007670888486318288,-0.0006931157433427871,-0.0006105502024292946,0.0,-0.010748088399998836,9.80665
261,144.369,0.9610655737704918,-0.001160441019116355,0.0006844172376182341,-0.7055294417967111,-0.7086793291930221,0.0007712627488044314,-0.000734706914434871,-0.0006228810082012328,0.0,-0.012491804166665217,9.80665
262,144.49,0.9754098360655737,-0.00115923658325171,0.0006901740597411171,-0.7055239158862493,-0.708684826891422,0.0007683901871103672,-0.0008057097674325358,-0.0006503037025501593,0.0,-0.01720055277777704,9.80665
263,144.606,0.9918032786885246,-0.0011587814520922076,0.0006941880267157106,-0.7055182552443938,-0.708690459074855,0.0007800490269998478,-0.0008039676460875066,-0.0006846965918968251,0.0,-0.017486556626504703,9.80665
264,144.687,0.9753593429158111,-0.001159024478786111,0.0006957843122401803,-0.7055140114689903,-0.7086946818462756,0.0007997451235080213,-0.0007467820233362293,-0.0007152089790205541,0.0,-0.014296441566262998,9.80665
265,144.808,0.971252566735113,-0.0011593309037271817,0.0006981897093484009,-0.7055076243742562,-0.7087010374057934,0.0008257812781569848,-0.0006678113674120352,-0.0007576559374322101,0.0,-0.010082338955822263,9.80665
266,144.848,0.9815195071868583,-0.0011591274029950297,0.0006990969838440904,-0.7055052565239941,-0.7087033939757397,0.0008161568354504754,-0.0006764560138870331,-0.0007548193588953853,0.0,-0.01165770441767031,9.80665
267,144.991,0.9671457905544147,-0.001158399887877587,0.0007023404901661789,-0.7054967914593073,-0.7087118187132977,0.0007817494527747215,-0.0007073606250351351,-0.000744678590626242,0.0,-0.01728963594377422,9.80665
268,145.061,0.9938398357289527,-0.001158191527991874,0.0007039624164183093,-0.7054926731399369,-0.7087159171038208,0.0007656791827175774,-0.0007195149692706767,-0.0007406927207484839,0.0,-0.01918180739999897,9.80665
269,145.197,0.9815195071868583,-0.0011593265554839358,0.0007074699351869011,-0.7054849367152259,-0.7087236128474477,0.0007425070444587633,-0.0007121399450115865,-0.0007431417526677248,0.0,-0.013846989799999139,9.80665
270,145.292,0.9795081967213115,-0.0011601194055703026,0.0007099200402090792,-0.7054795325950235,-0.7087289885507164,0.0007263206243515031,-0.0007069882736541337,-0.0007448524734936651,0.0,-0.010120462799999183,9.80665
271,145.387,0.9835728952772074,-0.0011636513866237666,0.0007078820910014878,-0.7054736927895493,-0.7087347976907028,0.0007475317847406984,-0.0007102257167651748,-0.0007229856992593204,0.0,-0.0098066499999988,9.80665
272,145.502,0.9876796714579056,-0.0011682318428765971,0.000704915522131149,-0.7054665750540114,-0.7087418780545676,0.0007773712806572993,-0.0007150785423715865,-0.0006938909174480521,0.0,-0.0098066499999988,9.80665
273,145.635,0.9630390143737166,-0.0011703561803341255,0.0007040213582673456,-0.7054581982872518,-0.7087502133898248,0.0007790283091189091,-0.0007274705110219585,-0.0007004171762113934,0.0,-0.013062298987852612,9.80665
274,145.725,0.9876796714579056,-0.0011704582586464197,0.0007044839197863788,-0.7054524687931008,-0.7087559156008292,0.0007663227903830125,-0.0007387093663769891,-0.0007217418662129082,0.0,-0.01663557226720477,9.80665
275,145.791,0.9876796714579056,-0.0011705331160754354,0.0007048231315670032,-0.7054482671640567,-0.7087600972222324,0.0007570054099766882,-0.0007469511936373449,-0.0007373799722140191,0.0,-0.01925597267206302,9.80665
276,145.874,0.9979508196721312,-0.0011715354410487026,0.0007058631299046011,-0.7054438445560864,-0.7087644964055931,0.0007551160445436836,-0.0007176920501515337,-0.0007340685152448724,0.0,-0.0196132999999988,9.80665
277,145.977,0.9938398357289527,-0.0011729163608545127,0.0007072463115955008,-0.705438486247557,-0.7087698259071175,0.0007542547229677439,-0.0006754021584056349,-0.0007264911588281398,0.0,-0.0196132999999988,9.80665
278,146.052,0.9835728952772074,-0.0011739424651031542,0.0007082464645412212,-0.7054345766570306,-0.7087737144528793,0.0007536137169227007,-0.0006457018353976285,-0.0007212488525547073,0.0,-0.01953484679999954,9.80665
279,146.181,0.9835728952772074,-0.0011769993842312724,0.0007095261257382432,-0.7054273555992463,-0.7087808949950223,0.0007516429303213954,-0.00066325386823155,-0.0007295082793571054,0.0,-0.01447461539999879,9.80665
280,146.289,0.9815573770491803,-0.001179558665361789,0.0007105974699962147,-0.7054213100624966,-0.7087869066117001,0.0007499929694458846,-0.0006779485933948277,-0.0007364231483079477,0.0,-0.010238142599999745,9.80665
281,146.409,0.9836065573770492,-0.0011816807726579082,0.0007099473366683644,-0.7054145759634249,-0.7087936057283342,0.0007577324817161184,-0.000685041448689507,-0.000723647770464451,0.0,-0.0098066499999988,9.80665
282,146.488,0.9938398357289527,-0.001183029889558016,0.0007093970533084085,-0.7054101415629964,-0.7087980172784726,0.0007634636518393324,-0.0006890973886493523,-0.0007138781013445868,0.0,-0.0098066499999988,9.80665
283,146.592,0.9876543209876543,-0.0011843836913622203,0.000708898561721079,-0.7054046671901544,-0.7088034637090408,0.0007587431597057673,-0.0006990105225704652,-0.0006984689168166321,0.0,-0.0098066499999988,9.80665
284,146.688,0.9897119341563786,-0.0011850344397015954,0.0007087588746456559,-0.7054001292494807,-0.7088079788909464,0.0007369888129178433,-0.0007146483375690879,-0.0006806312210392205,0.0,-0.0098066499999988,9.80665
285,146.788,0.9958847736625515,-0.0011857123025551114,0.0007086133672754234,-0.7053954022279455,-0.7088126822054315,0.0007143280350137449,-0.0007309377281926611,-0.000662050287937741,0.0,-0.0098066499999988,9.80665
286,146.943,0.9876543209876543,-0.001188757653073418,0.0007084973308054302,-0.705386728845951,-0.7088213086179355,0.0007166726436151802,-0.0007149156902535211,-0.000658149236063267,0.0,-0.015399197389557459,9.80665
287,146.969,0.9753086419753086,-0.0011892991174187067,0.0007084795481764975,-0.7053852532783519,-0.7088227761497816,0.0007176413284951302,-0.0007115943442906704,-0.0006578772375079613,0.0,-0.01642318493975746,9.80665
288,147.062,0.9671457905544147,-0.0009501238420126406,0.0006613509499234641,-0.7053816943525557,-0.7088258745825877,-0.0008278362497334297,0.002217934145370739,-0.0006146830384663837,0.0,-0.0196132999999988,9.80665
289,147.173,0.985655737704918,0.0012778510001358052,0.00022592386357249162,-0.7053912961744643,-0.7088122447692872,-0.015151418738588204,0.029220360426171155,-0.0002229749633919584,0.0,-0.0196132999999988,9.80665
290,147.254,0.6987704918032787,0.0029036704795413508,-9.18202264673922e-05,-0.7053983029093706,-0.7088022986893111,-0.02560376271694119,0.04892483365810566,6.286606436504115e-05,0.0,-0.0196132999999988,9.80665
291,147.353,0.592292089249493,0.004330719117942193,-0.0005319142490061775,-0.7053983370502744,-0.7087969154758609,-0.022712121493213687,0.045217788531383696,-0.00013576230140842214,0.0,-0.015596118072286572,10.10994723554227
292,147.498,0.4110429447852761,0.00564879771425081,-0.0012478197024166707,-0.7053866290158926,-0.7087983676362728,0.0031195512886749432,0.0014796189096074192,-0.0011820812820902138,0.0,-0.004174718473894107,10.972262905220894
293,147.595,0.3312883435582822,0.005334689402956428,-0.0013109852112385407,-0.705377557132688,-0.7088082662810038,0.013821623852083464,-0.01814378604693683,-0.0016879747168113007,0.0,1.3879987236152834e-15,11.333869688645429
294,147.663,0.21318681318681318,0.004104679495361032,-0.001004196600406594,-0.705370150704399,-0.7088227438751925,0.015769129615292497,-0.023763599456753465,-0.0018787546008195088,0.0,1.3967834953803557e-15,11.405602793824723
295,147.771,0.33433734939759036,0.0021511343480044255,-0.000516944100850169,-0.705358387553587,-0.7088457377012568,0.01886222700391736,-0.032689185460576295,-0.002181757946008894,0.0,1.4107357799484062e-15,11.519531843227087
296,147.894,0.4457831325301205,0.00021346085669832508,-4.0836345627048344e-05,-0.7053628121554297,-0.7088440231769872,0.017901483517620713,-0.029155828990041814,-0.0013016791818963244,0.0,1.4031570698632189e-15,11.457646979032253
297,147.981,0.5179640718562875,-0.0010886394715913,0.0002771375348853687,-0.7053701892464778,-0.7088361604536647,0.016153372662712964,-0.023391766706482343,-0.00038718440637545114,0.0,1.3922030771659123e-15,11.368200840725818
298,148.112,0.4431137724550898,-0.002582681966845247,0.0005681056668760569,-0.7053744270414792,-0.7088295079099328,0.013783357633033054,-0.016548465959639106,0.0003831031698867087,0.0,1.3758024364534284e-15,11.234279446215151
299,148.157,0.3819241982507289,-0.002917527137327179,0.0005962538570414665,-0.7053732563146953,-0.7088292055456774,0.013069467266568713,-0.014899576631971695,0.00041576345595884526,0.0,1.3702042975835278e-15,11.188567173306764
300,148.252,0.42409638554216866,-0.003624422497233223,0.0006556778140573094,-0.7053707847803734,-0.7088285672211383,0.01156236538181121,-0.011418588051341765,0.00048471294877777503,0.0,1.358386004413742e-15,11.092063486055759
301,148.352,0.5221238938053098,-0.004213939049122381,0.0006779203102943583,-0.7053877301461519,-0.708808671548134,0.009600944155826789,-0.008889833211898571,0.0007689224178903603,0.0,1.3439603373950618e-15,10.974268975599978
302,148.478,0.523109243697479,-0.004769592542219276,0.000657148209023326,-0.7054327446520903,-0.7087603309516103,0.006675585014745107,-0.007078156858682332,0.0013832244151272908,0.0,1.3233805454067547e-15,10.806222221199972
303,148.613,0.5051975051975052,-0.005255991726177966,0.0006292230683840621,-0.7054610096984884,-0.7087289041532007,0.004780286543071232,-0.005054074333980494,0.001257975779008029,0.0,1.302224288656873e-15,10.633468274799984
304,148.692,0.5627615062761506,-0.005465562102833865,0.0006089754823762265,-0.7054637940835498,-0.7087245464815138,0.0045248775798826775,-0.0038124230382960943,0.000644892760319484,0.0,1.2904596036476837e-15,10.537402331399976
305,148.79,0.6129707112970711,-0.00572553548147023,0.0005838582237842342,-0.7054672481308412,-0.7087191407622061,0.004208041144534932,-0.0022721467474474824,-0.00011564060463573381,0.0,1.2758654374337566e-15,10.418231920599995
306,148.927,0.6523517382413088,-0.005883875359028314,0.00048194969103601505,-0.7054704698960946,-0.7087147082835245,0.0038995269946753876,-0.0014213193338364104,0.000871525512076955,0.0,1.2500157967500318e-15,10.207153585999993
307,148.981,0.689161554192229,-0.005939229298543006,0.00043948287019863764,-0.705471684495838,-0.7087130686916946,0.003782548047602162,-0.001130773937329613,0.001331182129215507,0.0,1.2396394310416418e-15,10.12242412999999
308,149.072,0.6673387096774194,-0.006004652317507112,0.00036630308314275424,-0.7054722797548453,-0.7087119784322187,0.0035060602488738986,-0.000565330265089745,0.0016993181018448104,0.0,1.222699607687191e-15,9.984099975098797
309,149.199,0.6773547094188377,-0.005966358262630854,0.0002566585131384027,-0.7054663577923717,-0.7087182385485158,0.002751024548523768,0.0005765252280981806,0.0003221833345887113,0.0,1.2015995923280777e-15,9.811805274505907
310,149.286,0.6913827655310621,-0.005940125327400667,0.00018154766597008244,-0.705462301014929,-0.7087225269746407,0.0022337953679690582,0.0013587411958724293,-0.0006212081988857497,0.0,1.1871452510978219e-15,9.693776621343874
311,149.366,0.7334669338677354,-0.0058193309903219045,0.00010010758860493712,-0.706491004852723,-0.7076935815830452,0.0010398210842642295,0.0021438191839031583,-0.000772429076127079,0.0,1.174206596338123e-15,9.588124487449372
312,149.492,0.734,-0.005584875813096311,-3.381801886608092e-05,-0.7085833022648722,-0.7056006958705652,-0.0011691648846771032,0.003410404109724068,-0.0006830837402722775,0.0,1.1539894870378726e-15,9.423039261943321
313,149.578,0.748,-0.005581774596627675,-0.0001648598609322838,-0.7095620512289359,-0.7046207323975419,-0.0013149324201919778,0.003571048785713024,-0.0006049307289204449,0.0,1.1407079050474361e-15,9.314586914705867
314,149.673,0.72,-0.005957141941489323,-0.00040528250045515635,-0.7095586115183965,-0.7046208680960612,0.001811619301089265,0.0020495050650673912,-0.00047714973585314573,0.0,1.127285318687184e-15,9.204983179411762
315,149.75,0.732,-0.006261387052587708,-0.0006001513767000087,-0.7095558235424855,-0.7046209780832821,0.004345771748864558,0.0008162538388598924,-0.00037357987831438864,0.0,1.116405959216243e-15,9.116146467647066
316,149.848,0.748,-0.006277716558375523,-0.0007460890693702496,-0.7095515213372218,-0.7046250541974348,0.0031631510904591327,0.0014850450024530585,-0.0005802698567724845,0.0,1.1007335952231358e-15,8.988171903846148
317,149.969,0.72,-0.0056872951398913895,-0.0007582319194547281,-0.7095449683620608,-0.704636566838793,-0.005553575458856631,0.005995755447715461,-0.0013927373533638091,0.0,1.0783771092773554e-15,8.805617342307706
318,150.061,0.748,-0.005216047594859532,-0.0007616116179128975,-0.7095381466752786,-0.7046472288260772,-0.011558762180709012,0.009142845929149677,-0.0019064331427215908,0.0,1.0623532723098147e-15,8.674772783870964
319,150.24,0.7,-0.0038429338247002263,-0.0006486167780734026,-0.7094872991757997,-0.7047069642673228,-0.01052739731817225,0.009493869154774171,-0.0007802718027959325,0.0,1.0510845097074106e-15,8.582756354233862
320,150.282,0.714,-0.003520750705444961,-0.0006221040223568723,-0.7094753684775978,-0.7047209804043749,-0.010285401093442947,0.009576232146261484,-0.0005160328291820839,0.0,1.0484404425046117e-15,8.56116590705644
321,150.347,0.722,-0.003082579611790481,-0.0005847034388039747,-0.7094838996042402,-0.7047143877787766,-0.010182109743356708,0.009268486440181576,0.00013674899190688162,0.0,1.0505589892443222e-15,8.578465154000012
322,150.443,0.75,-0.002472308473025725,-0.0005316807232458226,-0.709512967459386,-0.7046873966295039,-0.010195013672113422,0.00854847568273526,0.0012496084198358485,0.0,1.0574765663832489e-15,8.634951458000014
323,150.581,0.732,-0.0016337804491286224,-0.0004484571588009706,-0.7095407283286864,-0.7046622670941356,-0.009542196653783296,0.007381592486053691,0.0021008392586372633,0.0,1.0690058616147913e-15,8.729095298
324,150.721,0.766,-0.0009245731494562242,-0.00033844978140521294,-0.7095176728125727,-0.7046866994627664,-0.006427971608936433,0.005716194044798423,0.00023073784308486707,0.0,1.086491959382635e-15,8.871880122000016
325,150.793,0.752,-0.0005598379667675871,-0.0002818745587445414,-0.7095058156899999,-0.7046992646809194,-0.004826370157301012,0.004859703417867201,-0.0007310285991991572,0.0,1.0954848096632397e-15,8.945312317200019
326,150.847,0.7690763052208835,-0.0003839404995548102,-0.000260716211194876,-0.7095043586848869,-0.7047008353717341,-0.004030338354408463,0.004277487112208982,-0.0009103680076077911,0.0,1.1017874910564837e-15,8.996777616400019
327,150.957,0.7610441767068273,-6.0226435678202366e-05,-0.00022515222669849678,-0.709504024985421,-0.7047012527869753,-0.002552330322563569,0.0031128007024525967,-0.0010836813063360847,0.0,1.1144697158111805e-15,9.100335840400005
328,151.12,0.7389558232931727,0.0002697414992996987,-0.00017910502101870272,-0.7095155777780193,-0.7046896702103937,-1.5228438439885035e-07,0.0010231467843572126,-0.0009478298644910302,0.0,1.1316559201839039e-15,9.240671848991944
329,151.188,0.7661290322580645,0.0003223080154176278,-0.00016367575756890947,-0.7095272441674292,-0.7046779039665134,0.0012703173316923181,-5.5369128183784325e-05,-0.0006679896285923068,0.0,1.1379125773744071e-15,9.291761332056444
330,151.247,0.782258064516129,0.0003679171985199796,-0.00015028860251687387,-0.7095373664758878,-0.7046676950196173,0.0023726365574066894,-0.0009911402875949914,-0.0004251870709741317,0.0,1.1433411475838182e-15,9.336088971774203
331,151.362,0.8008213552361396,0.0003638926853165434,-0.00011690771433107336,-0.7095385651888557,-0.7046664961517829,0.002589222087408501,-0.001971276797121373,0.0005275741568765704,0.0,1.1520287969644409e-15,9.407029012499997
332,151.454,0.7885010266940452,0.0002993138879988532,-8.539108497846029e-05,-0.7095272876775087,-0.7046778849457959,0.0014867553349290853,-0.0021981941355902657,0.0016064066855637524,0.0,1.157728630420513e-15,9.45357168472223
333,151.55,0.7773279352226721,0.00023192731688474868,-5.25041673931283e-05,-0.7095155198395815,-0.7046897689047659,0.0003363552453854654,-0.0024349774452969123,0.0027321449763676522,0.0,1.1636762827225007e-15,9.502137951388901
334,151.653,0.805668016194332,-8.444268621797714e-06,-4.906881063737272e-05,-0.7095149423589593,-0.7046903280706428,0.001676219616334571,-0.0032601399992511658,0.0007717504045068784,0.0,1.1685610233329999e-15,9.542024885433069
335,151.749,0.7525354969574036,-0.0002340156964405815,-4.615795445141209e-05,-0.7095145142187453,-0.7046907378350076,0.002948546868301537,-0.004034442174446335,-0.0010843634895069602,0.0,1.173100115943844e-15,9.579089389370075
336,151.863,0.7637474541751528,-0.0005258420634930586,-4.94288074572782e-05,-0.7095249330384192,-0.7046800728247742,0.004357006541082946,-0.0049835532215464495,-0.0016737741906286165,0.0,1.1777061252312302e-15,9.61670030943775
337,151.981,0.7673469387755102,-0.0008518537536769373,-5.953785209220762e-05,-0.709546638056343,-0.7046578887445213,0.005712518878056599,-0.0059955757014063665,-0.0006701182658190141,0.0,1.1816900600794796e-15,9.649231606224898
338,152.081,0.7755102040816326,-0.0011268320374824593,-5.501268483304525e-05,-0.7095551280432073,-0.7046489923249928,0.00655012117012551,-0.006613045050442102,-0.00026586732962856894,0.0,1.1846798174619217e-15,9.67364482793522
339,152.183,0.7741935483870968,-0.0014037170276815227,-1.429176220811054e-05,-0.7095364745336152,-0.7046672300387772,0.00654642886825298,-0.0065805094885952806,-0.0010843411991033202,0.0,1.1866636030786857e-15,9.68984366680162
340,152.26,0.8211382113821138,-0.0016127380496945283,1.6448542126397108e-05,-0.7095223929626486,-0.7046809977246732,0.0065436415423296,-0.006555948329161897,-0.001702208728020496,0.0,1.1881611667305563e-15,9.702072202024292
341,152.392,0.8065843621399177,-0.001964686415877145,2.9940558390860055e-05,-0.70952388811242,-0.7046785719728745,0.005859192922711311,-0.005151772230863446,0.00033115867432228184,0.0,1.1902700280855692e-15,9.719292361800001
342,152.494,0.808641975308642,-0.0022344276109591823,2.6716688405729356e-05,-0.7095339683230789,-0.704667636006406,0.005093672320246606,-0.0035925194397566857,0.002979080692865267,0.0,1.191740013227591e-15,9.731295701400002
343,152.576,0.8204081632653061,-0.002434587934109141,1.9084699112059455e-05,-0.7095436585485027,-0.7046572545067425,0.0045429496678979844,-0.0027881825511599932,0.00444761045885632,0.0,1.192920330568601e-15,9.740933723904384
344,152.682,0.8299595141700404,-0.0026441397432118634,-5.636260022445078e-06,-0.7095608609345736,-0.7046391487557782,0.0040217191435441306,-0.0030723060509078586,0.004400159083900462,0.0,1.1944418760050348e-15,9.753358085258965
345,152.786,0.8461538461538461,-0.0028497377445957034,-2.989078596573692e-05,-0.7095777387473226,-0.7046213846227566,0.0035103231573855405,-0.003351068729905814,0.0043536030179060275,0.0,1.1959347130370078e-15,9.765548024701197
346,152.87,0.8473895582329317,-0.0030045175012647658,-1.8374608690030112e-06,-0.7095756753268421,-0.704622799787186,0.0040021450850108164,-0.003525952472248029,0.0035809880189064357,0.0,1.1964884510712016e-15,9.77006963888889
347,152.954,0.8519269776876268,-0.003156643100868992,3.7426104022511515e-05,-0.7095699188475362,-0.7046279239205623,0.004706878196595996,-0.0036890078077299908,0.0026354290145847413,0.0,1.196888773822297e-15,9.773338522222224
348,153.062,0.8510204081632653,-0.0033461343446169207,8.357564019684928e-05,-0.7095619032721064,-0.7046351535475371,0.005365549538089823,-0.0037921086527839907,0.0014421363486477412,0.0,1.1973653485259817e-15,9.77723005
349,153.19,0.845679012345679,-0.003480363775931949,7.40907924812984e-05,-0.7095433012901081,-0.7046532250386345,0.002480803162278459,-0.0023359062597080957,0.00036010139502107644,0.0,1.1973653485259817e-15,9.77723005
350,153.287,0.878099173553719,-0.0035820845168503886,6.69030563218561e-05,-0.7095292044756251,-0.7046669198404816,0.00029470629935847946,-0.001232377883705052,-0.0004598782182742918,0.0,1.1973653485259817e-15,9.77723005
351,153.364,0.8863636363636364,-0.0035741304581452093,4.4305020193431356e-05,-0.7095247954377808,-0.7046714021163114,-0.0006986225012645798,-0.0006568186077659038,-0.00046238326093546716,0.0,1.1976595616322083e-15,9.779632482329317
352,153.455,0.906832298136646,-0.0035372340790734216,1.2361886670115658e-05,-0.7095216868328859,-0.7046747189013816,-0.0016425394001474847,-6.974333089327018e-05,-0.0002643473803562776,0.0,1.1980984697087105e-15,9.783216438755021
353,153.553,0.9316770186335404,-0.0034970768374539486,-2.1773487613770237e-05,-0.7095183912894761,-0.7046782402128319,-0.0026453110355749024,0.0005547298652860441,-5.883163581773267e-05,0.0,1.1985711399449433e-15,9.787076084136546
354,153.655,0.897119341563786,-0.0034126071432148955,-3.055569666248485e-05,-0.7095202297829007,-0.7046767956127953,-0.0023003937003303362,0.0004210751132018365,-0.0006277312143111678,0.0,1.1990631028438797e-15,9.791093266064257
355,153.744,0.8571428571428571,-0.003338903194320039,-3.82186045579315e-05,-0.709521833958536,-0.7046755351284497,-0.0019994364176169565,0.000304454790304838,-0.0011241239837809032,0.0,1.1994923645890302e-15,9.794598454216867
356,153.845,0.8612244897959184,-0.0032638428731408303,-4.2257442436570594e-05,-0.7095218370198789,-0.7046758862558333,-0.0012742414424914467,0.00030500085331479056,-0.0017288872764346331,0.0,1.1997672850325534e-15,9.79684335
357,153.956,0.8906882591093117,-0.0031935680957476623,-4.0065527510267486e-05,-0.7095192529095019,-0.7046788085928805,6.897725810506121e-05,0.0004947994588929903,-0.002452528623648837,0.0,1.1997672850325534e-15,9.79684335
358,154.077,0.8428571428571429,-0.0031065827792148516,-4.295123636733313e-05,-0.7095214102197743,-0.7046770246079904,0.0012557086069136915,0.0007064988138154255,-0.002627930557355182,0.0,1.1997672850325534e-15,9.79684335
359,154.181,0.8616352201257862,-0.002997561115589173,-6.284193967190016e-05,-0.7095396818405992,-0.7046590891360446,0.0013598279524594736,0.0009043035255745415,-0.0007540583815422194,0.0,1.1997672850325534e-15,9.79684335
360,154.246,0.8280922431865828,-0.002929422575823135,-7.527362923725251e-05,-0.7095511016036149,-0.7046478794660784,0.001424902543425577,0.001027931470423969,0.00041711172834069067,0.0,1.1997672850325534e-15,9.79684335
361,154.345,0.8448979591836735,-0.002808100538115559,-8.927829656892001e-05,-0.709560004214199,-0.7046394028732059,0.001256780099123683,0.0011885238373652183,0.0018298183903098701,0.0,1.1999738515721185e-15,9.7985300938
362,154.488,0.8516260162601627,-0.002599859066185131,-0.00010023372154513819,-0.7095568916214082,-0.7046433302815565,0.0005112289562821021,0.0013683783877641055,0.0031723508350551786,0.0,1.200660805412998e-15,9.8041394976
363,154.562,0.8387755102040816,-0.0024966864612328723,-0.00010577597616752566,-0.7095531631895692,-0.7046474730751908,0.00015474225860084655,0.0014531196560710754,0.0037221082858740298,0.0,1.2009682532858392e-15,9.80665
364,154.645,0.8775510204081632,-0.0024139053778176127,-0.00011108073325804155,-0.7095337795080361,-0.7046672691762318,-3.460945049304836e-05,0.0014883691258728584,0.0032980095706879185,0.0,1.2009682532858392e-15,9.80665
365,154.775,0.8565656565656565,-0.002284248259215401,-0.00011938938894198199,-0.7095034195249119,-0.7046982751176212,-0.00033118441654372247,0.0015435791388154088,0.0026337585709988397,0.0,1.2009682532858392e-15,9.80665
366,154.88,0.8638211382113821,-0.002204410631719452,-0.00013978177824812207,-0.709500878128944,-0.7047010841542586,-0.000563796613847914,0.0012682291920330347,0.0018324102352215831,0.0,1.2009682532858392e-15,9.80665
367,154.946,0.8983739837398373,-0.002159641612136986,-0.00015557671669170264,-0.7095040631696268,-0.7046980120582816,-0.0007085023400183184,0.0010255381874515407,0.0012710814936512224,0.0,1.2009682532858392e-15,9.80665
368,155.05,0.8125,-0.0020890964903706693,-0.00018046571060280152,-0.7095090820216118,-0.7046931711797724,-0.0009365234842868554,0.0006431159984140001,0.00038656347663117933,0.0,1.2009682532858392e-15,9.80665
369,155.146,0.9050505050505051,-0.0020498552112657416,-0.00018334800732086552,-0.7094979229381875,-0.7047045188947075,-0.0008655120929391461,0.00023686875282153547,0.00037241783187876796,0.0,1.2009682532858392e-15,9.80665
370,155.261,0.8686868686868687,-0.0020031737326127006,-0.00018654740352009021,-0.7094843561562307,-0.7047183119485186,-0.0007768968427256907,-0.00025045295826632335,0.00036558965988646414,0.0,1.2009682532858392e-15,9.80665
371,155.361,0.8222222222222222,-0.0019319566941509699,-0.00019406055666897537,-0.7094782849483062,-0.7047246154305086,-0.0010204103877424287,-8.887986601980593e-05,0.0002512877184867173,0.0,1.2009682532858392e-15,9.80665
372,155.488,0.8464646464646465,-0.0018144836820084013,-0.00020777763046855063,-0.7094756279463771,-0.7047275987648149,-0.001612589449324053,0.0006328974607149093,1.0488077723331038e-05,0.0,1.2009682532858392e-15,9.80665
373,155.557,0.8707070707070707,-0.0017553597228817527,-0.00021710442872110235,-0.7094759654223666,-0.7047274118965329,-0.001710106391307574,0.0009457927839540681,-0.00010446356274259848,0.0,1.2009682532858392e-15,9.80665
374,155.658,0.8340080971659919,-0.0017050904898205344,-0.0002452219826707089,-0.7094902055954645,-0.7047131861758309,-0.00012232176144166026,0.0007921326058420396,-0.00015019040359075107,0.0,1.2009682532858392e-15,9.80665
375,155.761,0.8762677484787018,-0.0016538258264016637,-0.00027389631986684496,-0.7095047277521881,-0.7046986787576893,0.0014969041482237292,0.0006354296519257981,-0.0001968227264359011,0.0,1.2009682532858392e-15,9.80665
376,155.848,0.8762677484787018,-0.001628270088858689,-0.00027134248060856433,-0.7095145103780507,-0.7046888912981879,0.0022469235763672222,-1.8023874565999305e-05,-1.881090525799681e-05,0.0,1.2011852957412523e-15,9.808422286144578
377,155.941,0.8825910931174089,-0.001618656575458466,-0.00024190015324219785,-0.7095224897154779,-0.7046808895507652,0.002432412184572918,-0.001236438026079585,0.0003883781105123178,0.0,1.201633850149106e-15,9.812085010843374
378,156.051,0.839835728952772,-0.0016072857531571273,-0.00020707589506692637,-0.709531927641467,-0.7046714251183299,0.002651807312558145,-0.002677573043998852,0.0008699995270148312,0.0,1.202164398373449e-15,9.816417265863453
379,156.193,0.8624229979466119,-0.0016277844309647341,-0.00015753515107691713,-0.7095436435236296,-0.7046595923020368,0.0024103608829900286,-0.0025035305554046965,0.0016907156840899233,0.0,1.2014918754442717e-15,9.810925699399998
380,156.277,0.8612244897959184,-0.001640057992023117,-0.0001282101196919559,-0.7095505720836167,-0.7046525942227186,0.002265332243405292,-0.0023920406820252607,0.0021770445746369335,0.0,1.2010883501111677e-15,9.807630665
381,156.344,0.8795918367346939,-0.0016499117171291,-0.00010823136590667837,-0.7095488197220577,-0.7046543390531221,0.0017316608838736825,-0.0020487845209427057,0.0018876868886872965,0.0,1.2009682532858392e-15,9.80665
382,156.466,0.8612244897959184,-0.0016679237958303558,-7.554969837058017e-05,-0.7095377397024384,-0.7046654572968566,0.00030685171671193407,-0.0011480914866550597,0.0006267343144862223,0.0,1.2009682532858392e-15,9.80665
383,156.562,0.9024390243902439,-0.0016854076548566738,-5.1449782451922714e-05,-0.7095302684744942,-0.7046729413633764,-0.0007009536726400323,-0.0005832396168263121,-0.0003217704780400951,0.0,1.2009682532858392e-15,9.80665
384,156.676,0.8313008130081301,-0.0017399774021934168,-3.934276435942682e-05,-0.7095341362401513,-0.7046689127859869,-0.0007400752138346417,-0.0013819565861485565,-0.0010016275411471437,0.0,1.2009682532858392e-15,9.80665
385,156.776,0.845213849287169,-0.0017878456016116333,-2.872257305021523e-05,-0.7095375290170434,-0.7046653789461714,-0.000774392355233437,-0.002082585506606973,-0.00159799338597815,0.0,1.2009682532858392e-15,9.80665
386,156.861,0.9409368635437881,-0.001821201573818517,-2.2370454763048973e-05,-0.7095412677340966,-0.704661529089972,-0.0007372652813385736,-0.002145977628450584,-0.0012839089959882396,0.0,1.2009682532858392e-15,9.80665
387,156.981,0.9107505070993914,-0.0018637308762418942,-1.5066993311983065e-05,-0.7095470777579505,-0.7046555676163841,-0.0006436052189822094,-0.0019044086844327822,-0.00032972694247122153,0.0,1.2009682532858392e-15,9.80665
388,157.082,0.9114688128772636,-0.0019018159318446993,-6.477355959365623e-06,-0.7095508794463657,-0.7046516382034069,-0.0004841535288330075,-0.0019011679875303525,0.00016269338929337043,0.0,1.2009682532858392e-15,9.80665
389,157.169,0.8643724696356275,-0.0019397636642263843,6.40702805421331e-06,-0.7095517098527824,-0.7046506972055717,-0.00016574859159107388,-0.002347707120803134,-0.00011086076495219345,0.0,1.2009682532858392e-15,9.80665
390,157.278,0.8744939271255061,-0.001987307374911466,2.2549532163173876e-05,-0.7095527502470285,-0.704649518254261,0.00023317253667740382,-0.0029071641958228426,-0.0004535895329148959,0.0,1.2009682532858392e-15,9.80665
391,157.358,0.8922764227642277,-0.0020074418741971496,1.283909961162918e-05,-0.7095551800713736,-0.7046470148086214,0.0003683126261457899,-0.00211712551675718,-0.00015823780791826298,0.0,1.2009682532858392e-15,9.80665
392,157.461,0.9081632653061225,-0.0020252207029433497,-1.1558557074729455e-05,-0.7095592278733636,-0.7046428877089234,0.00045531864766964537,-0.00043744954373654485,0.0005237968137954771,0.0,1.2009682532858392e-15,9.80665
393,157.572,0.8551020408163266,-0.002041485010088055,-3.750865648622884e-05,-0.7095613119698048,-0.7046407419453928,0.0004430709615909608,0.0009987902469502387,0.001076022902340325,0.0,1.2009682532858392e-15,9.80665
394,157.673,0.9142857142857143,-0.0020442968412628555,-5.97028417161079e-05,-0.7095537767791198,-0.7046483195159353,-6.9703112738853795e-06,0.0007576740695167151,0.0008217645484389952,0.0,1.2009682532858392e-15,9.80665
395,157.773,0.8597938144329897,-0.0020470808325250343,-8.167728253776927e-05,-0.7095463161942831,-0.704655822061027,-0.0004525557299519295,0.0005189451809686834,0.0005700236039822452,0.0,1.2009682532858392e-15,9.80665
396,157.861,0.8783505154639175,-0.002058134617519352,-8.584957712267444e-05,-0.709546463386431,-0.7046556411511893,0.00010761937704378746,-3.4057966061259244e-05,0.0003649065847018774,0.0,1.2009682532858392e-15,9.80665
397,157.981,0.9221311475409836,-0.002079276522931075,-8.084260265041043e-05,-0.7095513986297391,-0.7046506101028477,0.0015431726169043178,-0.0010300258566797523,9.677954481907019e-05,0.0,1.2009682532858392e-15,9.80665
398,158.06,0.8627049180327869,-0.002093221482995074,-7.784579711060088e-05,-0.7095538477558779,-0.7046481032562069,0.0024046051683297817,-0.001657840615858285,-7.260168681805555e-05,0.0,1.2009682532858392e-15,9.80665
399,158.196,0.944672131147541,-0.0021176334721501383,-7.726192116735814e-05,-0.7095458425779627,-0.7046560908245494,0.0026096855382995343,-0.0023129144887555062,-0.00025517148182790814,0.0,1.2009682532858392e-15,9.80665
400,158.291,0.8870636550308009,-0.002134685964574632,-7.68540666481812e-05,-0.7095402507257426,-0.7046616703759652,0.002752940208498997,-0.002770502855852839,-0.00038270185334214585,0.0,1.2009682532858392e-15,9.80665
401,158.355,0.9117043121149897,-0.0021365204211710033,-7.215962062531472e-05,-0.7095411860712486,-0.7046607234963818,0.0025127080141147833,-0.0020549855829473823,-0.00012606399345301456,0.0,1.2009682532858392e-15,9.80665
402,158.487,0.8688524590163934,-0.0021357092749600915,-6.037372759527824e-05,-0.7095453534248037,-0.7046565308082404,0.001856953537358795,-9.194781458333329e-05,0.0005662936728402836,0.0,1.2009682532858392e-15,9.80665
403,158.573,0.9237113402061856,-0.0021333987550403674,-5.522996506730697e-05,-0.7095465739241015,-0.7046553092970269,0.0015743614151893768,0.0008241255059293511,0.0007261493224030366,0.0,1.2010602629504054e-15,9.80740131592742
404,158.664,0.911340206185567,-0.0021243044939447575,-5.9245800122387256e-05,-0.7095422885504725,-0.7046596514130163,0.0018150466118728643,0.00043944905149649724,-0.00019136209260556573,0.0,1.2015009408175385e-15,9.81099972379032
405,158.781,0.9425051334702259,-0.002112611872536112,-6.440901662177817e-05,-0.709536778784378,-0.7046652341335741,0.002124499007608895,-5.51349613459322e-05,-0.0013710196261885045,0.0,1.2020675266467097e-15,9.815626248185483
406,158.861,0.8770491803278688,-0.002117196660721379,-6.383170640226506e-05,-0.7095358747459974,-0.704666130660089,0.0024206720383474047,-0.0006636423986419659,-0.0012904618037920402,0.0,1.2018869222285917e-15,9.81415150119522
407,158.96,0.8757637474541752,-0.0021284112864578012,-6.130797594089326e-05,-0.7095360171952437,-0.7046659536342426,0.002824441513113461,-0.001535741700902246,-0.0008000070349761664,0.0,1.2014132335549848e-15,9.810283539641434
408,159.069,0.90020366598778,-0.0021434585416761193,-5.952193595006358e-05,-0.7095368745081122,-0.704665044853754,0.0031796211898551417,-0.0023604800314997784,-0.0003153419495657601,0.0,1.2009682532858392e-15,9.80665
409,159.152,0.9055441478439425,-0.0021668661174775884,-6.255525970427959e-05,-0.7095406276483317,-0.7046611932206943,0.003054504288382931,-0.0023889777261808663,-0.00019117992536828098,0.0,1.2009682532858392e-15,9.80665
410,159.298,0.946611909650924,-0.0022080408893693335,-6.78909858261542e-05,-0.7095472295576334,-0.7046544180589267,0.0028344191363956417,-0.002439106201162064,2.722556297911848e-05,0.0,1.2009682532858392e-15,9.80665
411,159.385,0.8803245436105477,-0.0021847149076178727,-6.4083299895178e-05,-0.7095479249927397,-0.7046537900289865,0.0021712975036020632,-0.001682010121017161,0.000856272131343148,0.0,1.2009682532858392e-15,9.80665
412,159.501,0.8747474747474747,-0.0021505381522869175,-5.8557409001667016e-05,-0.7095486441380644,-0.7046531717223347,0.001252952193941085,-0.0006219805100477706,0.002006576846248429,0.0,1.2009682532858392e-15,9.80665
413,159.61,0.9493927125506073,-0.002142450849256776,-5.8158488959402645e-05,-0.7095482941022441,-0.7046535493734285,0.0010462066642080267,-0.0001723017404697552,0.002217903812733748,0.0,1.2009682532858392e-15,9.80665
414,159.697,0.8724696356275303,-0.002154146039627896,-6.146113394761626e-05,-0.7095472398318331,-0.7046545749686888,0.0013768738958550874,-0.00022612538480435698,0.0017297044139257982,0.0,1.2009682532858392e-15,9.80665
415,159.76,0.8767676767676768,-0.0021626149705862925,-6.385270445632252e-05,-0.709546476394639,-0.7046553176411187,0.001616322580840875,-0.00026510112725354896,0.001376180711340753,0.0,1.2009682532858392e-15,9.80665
416,159.891,0.9215291750503019,-0.0021608538733993584,-6.45437949806485e-05,-0.7095412011099297,-0.7046606348326508,0.0021360008032939937,-0.0005483319809899559,0.0011246480907025533,0.0,1.2009682532858392e-15,9.80665
417,159.95,0.9087221095334685,-0.002155797654769255,-6.391272880069354e-05,-0.7095380136292114,-0.704663859912191,0.0023748468781585558,-0.0007203896333609188,0.0011177835312772954,0.0,1.2009682532858392e-15,9.80665
418,160.085,0.8884381338742393,-0.0021522620575450896,-5.315049713300237e-05,-0.7095331757424314,-0.7046687425056843,0.002379591682227137,-0.0012469010017813324,0.0008601968775036528,0.0,1.2009682532858392e-15,9.80665
419,160.167,0.875,-0.002165197339133001,-2.9118941262883894e-05,-0.7095348472331793,-0.7046670205858314,0.001365337338065616,-0.0018160698749125634,0.0002496221184264193,0.0,1.2009682532858392e-15,9.80665
420,160.284,0.8995901639344263,-0.002183653777496241,5.169986015211771e-06,-0.7095372321651,-0.7046645637001876,-8.183044567703366e-05,-0.002628176681697364,-0.0006215638183057256,0.0,1.2009682532858392e-15,9.80665
421,160.351,0.8653061224489796,-0.0021778876856060254,2.3746374513236967e-06,-0.7095469124613891,-0.7046548335968262,-0.00019242246764096416,-0.0018455608372424902,9.312896562283012e-05,0.0,1.2009682532858392e-15,9.80665
422,160.487,0.9163265306122449,-0.0021540029105719593,-2.0025306788228707e-05,-0.7095727618528441,-0.7046288766896867,0.00011857116241521527,0.0006733683063076547,0.002448763842823158,0.0,1.2009682532858392e-15,9.80665
423,160.556,0.8780487804878049,-0.00214201647379968,-3.1155774991580766e-05,-0.7095857063681759,-0.7046158784123829,0.0002835200434821482,0.0019233103131784813,0.0036088906912950906,0.0,1.2009682532858392e-15,9.80665
424,160.675,0.907070707070707,-0.002136774612425689,-2.2884808936869296e-05,-0.7095880649010801,-0.7046135193880453,0.0014083159020952547,0.0007901250895472394,0.001503710466016282,0.0,1.2009682532858392e-15,9.80665
425,160.775,0.890020366598778,-0.002132369686901327,-1.5934417294254998e-05,-0.7095900468615038,-0.7046115370146523,0.0023535225059717626,-0.00016213140089913012,-0.0002653485468229557,0.0,1.2009682532858392e-15,9.80665
426,160.861,0.9205702647657841,-0.0021351872555987533,-1.9263527711934865e-05,-0.7095949000084876,-0.7046066407693429,0.0024948900248855507,-0.0006372234765439965,0.0004267256557939948,0.0,1.2009682532858392e-15,9.80665
427,160.996,0.8553971486761711,-0.0021446161859258826,-3.154205720293021e-05,-0.7096049044350184,-0.7045965362968855,0.0022079211529344063,-0.0011224326984957292,0.0031905264840463785,0.0,1.2009682532858392e-15,9.80665
428,161.04,0.9132231404958677,-0.0021476893187732417,-3.5543948296289504e-05,-0.7096081651369989,-0.7045932429873437,0.0021143905576318615,-0.0012805749634280609,0.0040913208280688946,0.0,1.2009682532858392e-15,9.80665
429,161.193,0.8526970954356846,-0.0021667969934515896,-5.783645519872891e-05,-0.7096020777772714,-0.7045993132067899,0.0032755423057825627,-0.001128235226497033,0.0014115692861375083,0.0,1.2009682532858392e-15,9.80665
430,161.261,0.9373695198329853,-0.0021756368494906366,-6.808994690742118e-05,-0.7095986531277819,-0.7046027342103968,0.003852952545508729,-0.0010315471980720781,-1.9294157624210988e-05,0.0,1.2009682532858392e-15,9.80665
431,161.401,0.872651356993737,-0.0021868726530221857,-8.061626126821992e-05,-0.7096096418982559,-0.7045916310640996,0.002975250515155328,-0.0007334526809863426,-0.0008037829338572785,0.0,1.2009682532858392e-15,9.80665
432,161.461,0.9066390041493776,-0.0021904089137050058,-8.4408062511639e-05,-0.7096176647524347,-0.7045835395626019,0.002219533515162571,-0.0005875085336155814,-0.0007429993697441957,0.0,1.2009682532858392e-15,9.80665
433,161.582,0.8672199170124482,-0.002193654034617921,-9.091944238484134e-05,-0.7096317403325522,-0.7045693526121283,0.0008805397120304632,-0.00038112051668576685,-0.0007396274290513134,0.0,1.2009682532858392e-15,9.80665
434,161.674,0.941908713692946,-0.0021867472283075237,-9.313151777322386e-05,-0.7096373677834019,-0.7045637057742338,0.00030878275493154096,-0.0004362983384635357,-0.0010246038509067437,0.0,1.2009682532858392e-15,9.80665
435,161.781,0.8948453608247423,-0.0021787143122726058,-9.570425762710315e-05,-0.7096439127534121,-0.7045571382562477,-0.0003561954451725424,-0.0005004725442268008,-0.0013560438198037712,0.0,1.2009682532858392e-15,9.80665
436,161.856,0.9130434782608695,-0.002178771797457313,-9.285575083821962e-05,-0.7096416633206963,-0.7045594040680987,-0.00044245080347173174,-0.0007533336095511791,-0.00030455104261642506,0.0,1.2009682532858392e-15,9.80665
437,161.988,0.8898128898128899,-0.002183028455703515,-8.444391052401439e-05,-0.7096327094182828,-0.704568410310175,-0.0003167540987487861,-0.0013502385281026464,0.0024839846044779302,0.0,1.2009682532858392e-15,9.80665
438,162.098,0.8814968814968815,-0.0021912133759621243,-7.642816757142511e-05,-0.7096253279218653,-0.7045758201901681,-9.487075381906632e-05,-0.0015856985421851067,0.0039439602801576564,0.0,1.2009682532858392e-15,9.80665
439,162.183,0.896049896049896,-0.0022027145154387734,-6.911146417209091e-05,-0.7096197134304562,-0.704581439612062,0.00020732736680655056,-0.001475254381075507,0.004107978399842969,0.0,1.2009682532858392e-15,9.80665
440,162.277,0.9043659043659044,-0.002215433422624717,-6.102005100106106e-05,-0.7096135044634859,-0.7045876540315682,0.0005415229354984686,-0.0013531161323189866,0.004289363143965582,0.0,1.2009682532858392e-15,9.80665
441,162.374,0.8559670781893004,-0.0022079679600784555,-6.107774183941672e-05,-0.7096174848380875,-0.7045836684722052,0.00019713856279851268,-0.0009180195759981983,0.0036922074947506375,0.0,1.2009682532858392e-15,9.80665
442,162.486,0.9403292181069959,-0.0021906419415869166,-6.469919288830162e-05,-0.7096264728356337,-0.7045746699168297,-0.0004919318854808359,-0.00028496144525710855,0.0026710736844689316,0.0,1.2009682532858392e-15,9.80665
443,162.565,0.8594704684317719,-0.0021795559719940587,-6.658239643290616e-05,-0.7096303122956066,-0.7045708373664975,-0.0008991955630481242,7.43709020316596e-05,0.002043286139145493,0.0,1.2009682532858392e-15,9.80665
444,162.693,0.9194214876033058,-0.0021718621286162666,-6.356159421579973e-05,-0.7096139145509742,-0.7045873761829698,-0.000846415739506477,-0.0001322645135224102,0.0018626918736845046,0.0,1.2009682532858392e-15,9.80665
445,162.773,0.8648648648648649,-0.002167053476505148,-6.167359283010879e-05,-0.7096036659605791,-0.7045977129432651,-0.0008134283497929578,-0.00026141164824366363,0.0017498204577714221,0.0,1.2009682532858392e-15,9.80665
446,162.927,0.9126819126819127,-0.0021856101181493173,-8.929970130161643e-05,-0.7095964088546776,-0.7046049605233711,0.0014495203633687502,-0.0011211718536084932,0.001707264255466206,0.0,1.2009682532858392e-15,9.80665
447,162.981,0.8907216494845361,-0.00219447652019799,-0.00010163874876550175,-0.709594922163039,-0.7046064286679659,0.0024296109752158677,-0.0014744929956375106,0.001707164346173938,0.0,1.2009682532858392e-15,9.80665
448,163.116,0.89375,-0.002221222724725897,-0.00010326667261654007,-0.709592757564713,-0.7046085243227543,0.0036091700077972933,-0.0020348761801517895,0.0009108092725057913,0.0,1.2009682532858392e-15,9.80665
449,163.202,0.8854166666666666,-0.002241800621261969,-8.172276864084696e-05,-0.7095925781205603,-0.7046086424006647,0.0033786221916201576,-0.0021423090159171975,-0.0002117278068438683,0.0,1.2009682532858392e-15,9.80665
450,163.255,0.8597938144329897,-0.0022544823481969916,-6.844571153954596e-05,-0.7095924675328849,-0.7046087151696094,0.003236540397929578,-0.00220851762400519,-0.000903523913885028,0.0,1.2009682532858392e-15,9.80665
451,163.377,0.9402061855670103,-0.002263156991340188,-4.3874645385173194e-05,-0.7095949310598867,-0.7046062088714419,0.002527887010872881,-0.0016113694707330008,-0.0010537204784451418,0.0,1.2009682532858392e-15,9.80665
452,163.503,0.8801652892561983,-0.0022583712142895127,-2.2511581022553036e-05,-0.7095992962479489,-0.7046018291759444,0.0015403610979400524,-0.0004925053633218982,-0.00024266229454617547,0.0,1.2009682532858392e-15,9.80665
453,163.595,0.8636363636363636,-0.002254662409077245,-1.0540933097683674e-05,-0.709596986538591,-0.7046041674840239,0.0012616419381121444,-0.00028279599365231404,-0.0003956349491305431,0.0,1.2009682532858392e-15,9.80665
454,163.677,0.925,-0.0022511082777064003,-4.074935495007467e-06,-0.7095885585467292,-0.7046126663770158,0.001525745932835613,-0.0007994863401955534,-0.0013954098624864022,0.0,1.2009682532858392e-15,9.80665
455,163.781,0.8708333333333333,-0.0022466005988945963,4.125841952290883e-06,-0.709577869386319,-0.7046234454608105,0.0018607070968752037,-0.001454800926055407,-0.002663417069669705,0.0,1.2009682532858392e-15,9.80665
456,163.898,0.8839103869653768,-0.00227359602227748,3.2902334874421444e-05,-0.7095812908133283,-0.704619910851859,0.001367673909558824,-0.0017975930892583938,-0.002738861070270574,0.0,1.2009682532858392e-15,9.80665
457,164.018,0.8760162601626016,-0.002309330891072386,6.732300651043685e-05,-0.7095886763996426,-0.7046123553904242,0.0006437022452320921,-0.0020501890323640468,-0.002477183618927868,0.0,1.2009682532858392e-15,9.80665
458,164.095,0.8961303462321792,-0.002330729860673823,7.315889730292981e-05,-0.7095892538302482,-0.7046117033416683,0.0006511082775109348,-0.0020635954419811996,-0.0027263780244655613,0.0,1.2009682532858392e-15,9.80665
459,164.182,0.8839103869653768,-0.0023533079231713647,6.276859686069546e-05,-0.7095855567829933,-0.7046153520169492,0.0011527298951066315,-0.001923357228553246,-0.0034438632973168215,0.0,1.2009682532858392e-15,9.80665
460,164.282,0.9085365853658537,-0.002379259719145559,5.0825722789157514e-05,-0.7095813073033899,-0.7046195458965824,0.0017293064670559116,-0.0017621638797854268,-0.0042685590132381,0.0,1.2009682532858392e-15,9.80665
461,164.37,0.8951612903225806,-0.0023800250516993015,3.9652889223074385e-05,-0.7095848326396852,-0.7046159938733282,0.0011891901432313323,-0.0009898257597656893,-0.0032603387276555628,0.0,1.2009682532858392e-15,9.80665
462,164.469,0.9412955465587044,-0.0023731031126622503,2.6849632938074585e-05,-0.709591360325867,-0.704609444006765,0.00021219696428454934,0.00010137221278741894,-0.0015146785454669847,0.0,1.2009682532858392e-15,9.80665
463,164.552,0.8866396761133604,-0.002367299870843308,1.6115589790043522e-05,-0.709596833032464,-0.7046039527044947,-0.0006068983271557537,0.0010162149574532355,-5.11452614097678e-05,0.0,1.2009682532858392e-15,9.80665
464,164.691,0.9549180327868853,-0.0023351313090245415,-4.876764271597247e-06,-0.7095750289877429,-0.7046260166845955,-0.00042069303367406146,0.0004969798589506656,-0.0017874775375857092,0.0,1.2009682532858392e-15,9.80665
465,164.794,0.9012345679012346,-0.002311051318946805,-2.0464876309630504e-05,-0.7095585370208202,-0.7046427044142717,-0.00026586032907353023,9.003249614168642e-05,-0.003119408984736054,0.0,1.2009682532858392e-15,9.80665
466,164.856,0.946058091286307,-0.0023019914260679693,-2.84354521543778e-05,-0.7095540718749769,-0.7046472299649171,-0.0004678011044031851,-0.00034828045283485004,-0.0024863380734580277,0.0,1.2009682532858392e-15,9.80665
467,165.005,0.8672199170124482,-0.0022824363959677123,-4.70140872975128e-05,-0.7095455701593489,-0.704655853408819,-0.0010735559561806862,-0.0014805523734095541,-0.00037938453874283287,0.0,1.2009682532858392e-15,9.80665
468,165.086,0.9474747474747475,-0.002281427051170284,-4.87650482000287e-05,-0.7095410727736442,-0.7046603851257387,-0.0009074989357031036,-0.0017001659944071066,0.0002331629802938336,0.0,1.2008181322541783e-15,9.80542416875
469,165.181,0.898989898989899,-0.0022984435303581223,-3.5025350136641534e-05,-0.7095360332963943,-0.7046654046309268,0.00022432021796714788,-0.001208791060977746,-5.6384358510043735e-05,0.0,1.200358083931347e-15,9.801667589112903
470,165.278,0.9195171026156942,-0.0023158182512130697,-2.0996395271922622e-05,-0.7095308877248865,-0.7046705298099084,0.0013799671432933908,-0.0007070713921078645,-0.0003520274307623663,0.0,1.199888350380667e-15,9.79783192358871
471,165.384,0.8888888888888888,-0.0023112613038595246,-1.0500668973197226e-05,-0.7095283156531615,-0.7046731348444852,0.0007630094666966564,-0.0003456410607323369,0.00015347699308759923,0.0,1.200156398746618e-15,9.8000207046
472,165.467,0.8724696356275303,-0.0023020032500326876,-3.450775745914626e-06,-0.7095270389968578,-0.7046744506631172,-0.00017438312899339036,-0.0001077885362319197,0.000749541074968987,0.0,1.200555120206709e-15,9.8032765124
473,165.627,0.9048582995951417,-0.002279148461932644,-3.92328131757204e-06,-0.7095253478319455,-0.7046762275575582,-0.0009714041950655808,0.0002973976800593214,0.0009140226056806049,0.0,1.2009682532858392e-15,9.80665
474,165.693,0.9016064257028112,-0.0022673200972809135,-1.085971561903242e-05,-0.7095250192907198,-0.7046765963692145,-0.0008159891880335987,0.0004389735777766159,0.0005098822762246478,0.0,1.2009682532858392e-15,9.80665
475,165.793,0.8767676767676768,-0.002249398332657081,-2.136946456063806e-05,-0.7095245215009838,-0.7046771551747543,-0.0005805119046518301,0.0006534825137118902,-0.00010245155628431997,0.0,1.2009682532858392e-15,9.80665
476,165.902,0.9414141414141414,-0.0022545920602419596,-1.0357109499436742e-05,-0.7095257966157134,-0.7046758547952193,-0.00041084679757175775,-0.00025503661102007887,3.1479131748281475e-05,0.0,1.2009682532858392e-15,9.80665
477,166.02,0.8888888888888888,-0.00226321945166883,4.294670485096514e-06,-0.7095273978896814,-0.7046742150188822,-0.00023774488433542907,-0.0013773792917022238,0.0002738456045423542,0.0,1.2009682532858392e-15,9.80665
478,166.101,0.8943089430894309,-0.0022680715602699667,4.775620684007355e-06,-0.7095266324336659,-0.7046749701830888,-2.3137032431328597e-05,-0.0015068413312768652,0.00014981881083388435,0.0,1.2009682532858392e-15,9.80665
479,166.169,0.8821138211382114,-0.002271527325286499,-3.478697625351333e-07,-0.7095249136346099,-0.7046766896561987,0.00021231012688657325,-0.0012455889354607407,-0.00012190812378238571,0.0,1.2009682532858392e-15,9.80665
480,166.25,0.9491869918699187,-0.0022756437512620725,-6.450851029738236e-06,-0.7095228662416168,-0.704678737852109,0.0004927692431328092,-0.0009343912286798667,-0.00044558285472225264,0.0,1.2009682532858392e-15,9.80665
481,166.381,0.8822314049586777,-0.0022566387915076264,-3.477751897458425e-05,-0.7095261423969978,-0.7046754978434507,0.0003749810835779442,-8.185537338115491e-05,-0.0008029699399599576,0.0,1.2009682532858392e-15,9.80665
482,166.485,0.8615702479338843,-0.0022268071252386557,-6.786959141107156e-05,-0.7095325279429451,-0.7046691610153896,-4.6798253819657046e-05,0.0007956155756523815,-0.0009912755515691443,0.0,1.2009682532858392e-15,9.80665
483,166.565,0.8668032786885246,-0.002200032016344154,-9.540620672431311e-05,-0.7095369884150627,-0.7046647506618005,-6.48370906497904e-05,0.0012214076497870804,-0.0010486026281148677,0.0,1.2009682532858392e-15,9.80665
484,166.714,0.897119341563786,-0.002130134164119418,-0.0001575833963328152,-0.709542933534803,-0.7046589650465396,0.001504912149068223,0.0007105225160133097,-0.0006973873105763876,0.0,1.2009682532858392e-15,9.80665
485,166.781,0.8765432098765432,-0.0020987035862733926,-0.00018554226682791634,-0.7095456068436795,-0.7046563634611539,0.002210772545451563,0.00048079564377944285,-0.0005394582751731622,0.0,1.2009682532858392e-15,9.80665
486,166.861,0.8551020408163266,-0.0020992039435409207,-0.00018491250653012751,-0.7095487401417481,-0.704653208048462,0.0023269603266399814,0.00017029770727586212,-9.32594545253987e-05,0.0,1.2009682532858392e-15,9.80665
487,166.981,0.8775510204081632,-0.0021244019543691477,-0.00016210205348638106,-0.7095534023450815,-0.7046484434023716,0.0020341223253528373,-0.0003187188218968246,0.000741656029495876,0.0,1.2009682532858392e-15,9.80665
488,167.061,0.926530612244898,-0.002139221989891526,-0.00014986808158880222,-0.7095559560444102,-0.7046458304717181,0.0018792383293639826,-0.0006824329002160837,0.0012417817538928019,0.0,1.2009682532858392e-15,9.80665
489,167.181,0.8985801217038539,-0.0021305004859236386,-0.0001780232879436605,-0.7095511136267137,-0.7046507258268867,0.002277966125835186,-0.0018177875814585505,0.0011083898387606193,0.0,1.2009682532858392e-15,9.80665
490,167.253,0.9111111111111111,-0.002125267583542908,-0.0001949164117565688,-0.7095482081760958,-0.7046536630399879,0.0025172028037178137,-0.0024990003902037616,0.0010283546896813415,0.0,1.2009682532858392e-15,9.80665
491,167.394,0.9311740890688259,-0.002116773027120634,-0.00020217322403635925,-0.7095435109075195,-0.7046584168311957,0.001897922032917942,-0.0018597494338086925,0.0009345643923180471,0.0,1.2009682532858392e-15,9.80665
492,167.476,0.871900826446281,-0.002112465784244642,-0.00019707128716795315,-0.7095411374499304,-0.7046608211101992,0.00114511652837359,-0.0007756900526337913,0.0009027409128305546,0.0,1.2009682532858392e-15,9.80665
493,167.592,0.8863636363636364,-0.0021112622056665125,-0.00019064253366242052,-0.7095380221810619,-0.7046639633453949,0.000339324676767487,0.00010856036982676936,0.00017472071804094935,0.0,1.2009682532858392e-15,9.80665
494,167.682,0.8816326530612245,-0.0021181153619832206,-0.00018691063248956776,-0.7095359910475656,-0.7046659889093033,0.00012685701856764587,-0.000239427030073467,-0.0014778428928519114,0.0,1.2009682532858392e-15,9.80665
495,167.821,0.8888888888888888,-0.0021307187891018583,-0.0001742157683733529,-0.709535091173418,-0.7046668595718668,-0.00021415909659114655,-0.0007936135581694112,-0.003527904339134809,0.0,1.2009682532858392e-15,9.80665
496,167.885,0.9166666666666666,-0.002143668576378395,-0.00014383737165341736,-0.709542595206607,-0.7046592691394218,-0.00041673369240010705,-0.0011080285510978814,-0.0026941357180478263,0.0,1.2009682532858392e-15,9.80665
497,167.993,0.8983739837398373,-0.002165521342407554,-9.257382718851854e-05,-0.7095552582626137,-0.7046464602846708,-0.0007585783228277786,-0.0016386038516647532,-0.001287151169963335,0.0,1.2009682532858392e-15,9.80665
498,168.081,0.8397565922920892,-0.0021778624023360053,-5.5118735051880463e-05,-0.7095652561093581,-0.7046363604855633,-0.0009841959178728044,-0.0018561794385164962,-0.000516991591292322,0.0,1.2009682532858392e-15,9.80665
499,168.181,0.9096509240246407,-0.002177077608121784,-2.4249426151114943e-05,-0.7095757496270215,-0.7046257967637312,-0.0010971707461615095,-0.0015215104479477108,-0.0006614291797818561,0.0,1.2009682532858392e-15,9.80665
500,168.314,0.893223819301848,-0.0021751985376767423,1.2702068784701736e-05,-0.7095897040586909,-0.7046117513539549,-0.001220917764585479,-0.0010621942882426516,-0.0006729330308736881,0.0,1.2009682532858392e-15,9.80665
501,168.381,0.8836734693877552,-0.0021690762548143504,5.883110203535526e-06,-0.7095967216718116,-0.704604702740072,-0.001118997228099036,-0.0007427831694949503,0.000440301333554059,0.0,1.2009682532858392e-15,9.80665
502,168.458,0.9368635437881874,-0.0021620401983904088,-1.953603389744009e-06,-0.7096047866898757,-0.7045966020942663,-0.0010018646712414976,-0.00037569874944167055,0.0017196900807320468,0.0,1.2009682532858392e-15,9.80665
503,168.581,0.8979591836734694,-0.0021586702014100845,-1.8464476343850105e-05,-0.7096120189956959,-0.7045893282975796,-0.0007323479687329985,-1.994644757318846e-06,0.003031663463916768,0.0,1.2009682532858392e-15,9.80665
504,168.678,0.950920245398773,-0.002178078210055458,-4.268007668710355e-05,-0.7096018778912986,-0.7045994799215767,-0.0002887299400754492,-0.0003036272381432203,0.002014569276943853,0.0,1.2009682532858392e-15,9.80665
505,168.79,0.869120654396728,-0.0022004874571511434,-7.064035749580482e-05,-0.7095901685748811,-0.7046112013843362,0.0002234888146630963,-0.000651904047001122,0.0008401924837381698,0.0,1.2009682532858392e-15,9.80665
506,168.911,0.9183673469387755,-0.0022188463957063115,-8.351446746221073e-05,-0.7095853624377549,-0.7046159824231395,0.00047938376261603597,-0.0009966174630351675,0.0002687136525292043,0.0,1.2009682532858392e-15,9.80665
507,168.981,0.8591836734693877,-0.002229024384367753,-8.965031083204281e-05,-0.7095831757734542,-0.7046181516747011,0.0006049046247911656,-0.001193650332613413,-9.115517976097747e-06,0.0,1.2009682532858392e-15,9.80665
508,169.081,0.9127789046653144,-0.002238817539407805,-9.535679434340457e-05,-0.7095802057790008,-0.7046211110582661,0.0009868909162093508,-0.0013768576622293705,-0.0003888586428049507,0.0,1.2009682532858392e-15,9.80665
509,169.181,0.9149797570850202,-0.002235100489509821,-9.235687326799692e-05,-0.7095776735562819,-0.7046236732689249,0.0019457094106229197,-0.0012803785811481279,-0.0007197740340482186,0.0,1.2009682532858392e-15,9.80665
510,169.279,0.9024390243902439,-0.0022314577806097978,-8.941695061409853e-05,-0.7095751919780172,-0.7046261842353706,0.0028853515351478574,-0.0011858290816885461,-0.001044071117466497,0.0,1.2009682532858392e-15,9.80665
511,169.387,0.8902439024390244,-0.0022257565203036814,-9.187049468677528e-05,-0.7095822463296054,-0.7046190977798229,0.0025405344404280297,-0.0009582452338654588,-0.0009936648837756388,0.0,1.2009682532858392e-15,9.80665
512,169.484,0.8866396761133604,-0.0022201796071751605,-9.561437253169472e-05,-0.7095912304079788,-0.7046100674208278,0.0018574186973273274,-0.0007204619143158031,-0.0008380732825025805,0.0,1.2009682532858392e-15,9.80665
513,169.584,0.8805668016194332,-0.0022153076733672184,-9.127663099882823e-05,-0.7095995891361389,-0.7046016653101149,0.0010929286247119204,-0.0005290143680758768,-0.0006299690529704057,0.0,1.2009682532858392e-15,9.80665
514,169.661,0.8947368421052632,-0.0022131327895703813,-7.32085577709627e-05,-0.7096044025925631,-0.7045968262276645,0.000396027422975755,-0.00047806260501965934,-0.00038402686757035766,0.0,1.2009682532858392e-15,9.80665
515,169.798,0.8732394366197183,-0.0022092631911266583,-4.10614664434608e-05,-0.709612966794253,-0.7045882164316166,-0.0008439136762171963,-0.0003874081694521011,5.355857918038897e-05,0.0,1.2009682532858392e-15,9.80665
516,169.878,0.8868686868686869,-0.0022205574139395165,-3.4692434798801915e-05,-0.709602313739918,-0.7045989095253702,-0.0005351986237802403,-0.0007120121717452285,0.00042676031216971313,0.0,1.2009682532858392e-15,9.80665
517,169.968,0.8825910931174089,-0.0022344997448176178,-2.865862824308994e-05,-0.7095889011507619,-0.7046123732396973,-9.368897788232847e-05,-0.0011116295265964598,0.0008573463475331056,0.0,1.2009682532858392e-15,9.80665
518,170.054,0.9008097165991903,-0.0022478224165455823,-2.2892990867631188e-05,-0.7095760846766795,-0.7046252385667209,0.0003281980170868337,-0.0014934861101210115,0.0012687952257692816,0.0,1.2009682532858392e-15,9.80665
519,170.181,0.8545454545454545,-0.0023021502149814005,-1.8969104716991806e-05,-0.7095627232508901,-0.7046385160122369,-4.980205521284579e-05,-0.0021620469208481776,-6.990812881485118e-05,0.0,1.2009682532858392e-15,9.80665
520,170.261,0.922920892494929,-0.0023363724502165526,-1.6497365409503113e-05,-0.7095543066047235,-0.7046468797574439,-0.00028791233697635814,-0.002583187589022655,-0.0009131858324896642,0.0,1.2009682532858392e-15,9.80665
521,170.367,0.9411764705882353,-0.002357040035453228,9.422091509675035e-06,-0.709551010577518,-0.7046501300493155,-0.0005348893809131882,-0.0022357809043025783,-0.0016818387303500332,0.0,1.2009682532858392e-15,9.80665
522,170.508,0.902834008097166,-0.0023603167319496514,6.612051121099478e-05,-0.7095543352564214,-0.7046467684364005,-0.0007961785853840377,-0.0008851897274144171,-0.00236212718486785,0.0,1.2009682532858392e-15,9.80665
523,170.581,0.8955823293172691,-0.002359910858309932,9.011582826689634e-05,-0.709553275699639,-0.7046478349777495,-0.0007609283351938946,-0.0005076888006134913,-0.0027103892650947913,0.0,1.2009682532858392e-15,9.80665
524,170.661,0.8694779116465864,-0.002355042554990124,0.00010513575585202543,-0.709546263340066,-0.7046549099224335,-0.00036348908205509497,-0.0007709681381841474,-0.0030837477330701514,0.0,1.2009682532858392e-15,9.80665
525,170.754,0.87,-0.002349383152380849,0.00012259642166973327,-0.7095381114720622,-0.7046631345456286,9.85340497186341e-05,-0.001077030368109952,-0.00351777695209139,0.0,1.2009682532858392e-15,9.80665
526,170.918,0.9313131313131313,-0.00236596621999422,0.00014545445887586287,-0.7095295988963544,-0.7046716459444007,0.001178304163238496,-0.0010409220894835346,-0.0031068402447409797,0.0,1.2009682532858392e-15,9.80665
527,170.991,0.907070707070707,-0.002378684119122732,0.00015403540432767265,-0.709526987565885,-0.7046742307397293,0.0017121748627429785,-0.0009091675185815308,-0.002687605294829554,0.0,1.2009682532858392e-15,9.80665
528,171.09,0.8911290322580645,-0.0023918216792293864,0.00015572470887544428,-0.7095248942507434,-0.7046762938440575,0.0019917527811858576,-0.0008872755409438248,-0.0023460536154093184,0.0,1.2009682532858392e-15,9.80665
529,171.18,0.8739837398373984,-0.0023959419010426675,0.000138325577798595,-0.709525747522255,-0.7046754241007372,0.001399966225603427,-0.0011658071203354467,-0.0024676256249015296,0.0,1.2009682532858392e-15,9.80665
530,171.273,0.9369918699186992,-0.002400199463583057,0.00012034647568585352,-0.7095266292361502,-0.704674525365973,0.000788453451501676,-0.0014536230857067453,-0.0025932500347101285,0.0,1.2009682532858392e-15,9.80665
531,171.394,0.9249492900608519,-0.002391841760860782,0.00011580032696543954,-0.7095348641479079,-0.7046662627537378,0.00047818772698759445,-0.0006491370914764923,-0.0018910710865338634,0.0,1.2009682532858392e-15,9.80665
532,171.477,0.9183673469387755,-0.0023828252954211575,0.00011713467675793918,-0.7095421875211463,-0.7046589190668446,0.0003800373375300245,0.00018125452959441633,-0.001204888182422766,0.0,1.2009682532858392e-15,9.80665
533,171.581,0.9047619047619048,-0.0023670026622018073,0.00011086230665853438,-0.7095473857705454,-0.704653738764421,8.827535969807267e-05,0.0008183060851951685,-0.00037054075947930186,0.0,1.2008053312359748e-15,9.805319640503875
534,171.694,0.9461697722567288,-0.002340118291829502,8.703012610967304e-05,-0.7095445128066813,-0.7046567241930864,-0.0005902640563038208,0.0006463071421626378,0.0004814993012551397,0.0,1.2002793257606985e-15,9.801024479844962
535,171.772,0.8804123711340206,-0.002321560938829149,7.057959440337868e-05,-0.7095425296988812,-0.7046587849314573,-0.0010586363965529352,0.0005275822080339833,0.001069633148487788,0.0,1.1999162423352865e-15,9.79805967868217
536,171.887,0.94824016563147,-0.00232248720993262,7.363971358656477e-05,-0.7095332364738338,-0.7046681391432045,-0.0006695794190030707,-0.00025643525584638835,-0.0005748097204574252,0.0,1.2001597274145327e-15,9.80004788523622
537,171.985,0.8488612836438924,-0.0023325700451695785,8.522148968592228e-05,-0.7095232243659868,-0.7046781856552625,1.666821698912942e-05,-0.0011246323674427513,-0.002801332586558994,0.0,1.2006230931185563e-15,9.803831553346457
538,172.061,0.906832298136646,-0.0023394290371565605,9.32772613352e-05,-0.7095161226244457,-0.7046853127640312,0.0005233577237679196,-0.0017604292021603813,-0.004378193697179113,0.0,1.2009682532858392e-15,9.80665
539,172.193,0.8801652892561983,-0.002310754615389038,6.813259317781874e-05,-0.70953179793954,-0.7046696259913802,0.0003255796260558468,-0.0012798866394695663,-0.000784659646979032,0.0,1.2009682532858392e-15,9.80665
540,172.288,0.9028925619834711,-0.00229011772093514,5.003605170091646e-05,-0.7095430794163123,-0.7046583362686388,0.00018323932846004386,-0.0009340416132905881,0.001801595919452715,0.0,1.2009682532858392e-15,9.80665
541,172.381,0.9014373716632443,-0.0022784696360603303,3.0903647512357736e-05,-0.7095472724195028,-0.7046541528567452,7.668275275599508e-05,-0.00027008605450078724,0.001599312512306684,0.0,1.2009682532858392e-15,9.80665
542,172.488,0.9197530864197531,-0.002267269598423098,8.526461968003896e-06,-0.7095503334819934,-0.7046511073752725,-3.7476608837497445e-05,0.0005775616120476062,0.0006629399764371236,0.0,1.2009682532858392e-15,9.80665
543,172.541,0.8888888888888888,-0.002261721916228955,-2.5575645165820915e-06,-0.7095518497092083,-0.704649598865758,-9.40228346735239e-05,0.0009974244749173522,0.00019912928109988557,0.0,1.2009682532858392e-15,9.80665
544,172.661,0.9287169042769857,-0.002260614288171455,1.174239262189496e-05,-0.7095540187967408,-0.704647417957765,-0.0007301718040527486,0.000572841937372574,0.0005914524037232727,0.0,1.2009682532858392e-15,9.80665
545,172.774,0.8551020408163266,-0.002259571271750643,2.5208185593960285e-05,-0.7095560613541675,-0.7046453642694048,-0.0013292120835514934,0.0001730267145179246,0.0009608900108602802,0.0,1.2009682532858392e-15,9.80665
546,172.885,0.9163265306122449,-0.002276023659071826,2.7079547901875375e-05,-0.7095538322135075,-0.7046475555376097,-0.0008446472939105555,-0.0004256206259595821,0.0009554182265419802,0.0,1.2009682532858392e-15,9.80665
547,172.982,0.8882113821138211,-0.002296587358007387,2.4695116499584004e-05,-0.7095503849513786,-0.7046509601684445,-4.1383522562784365e-05,-0.0010216491962782284,0.0008202428529039198,0.0,1.2009682532858392e-15,9.80665
548,173.078,0.9776422764227642,-0.002316231241715266,2.0398335433172422e-05,-0.7095491951240185,-0.7046520943609555,0.0005202479609082752,-0.0014479773074209078,0.0009387777377214639,0.0,1.2009682532858392e-15,9.80665
549,173.154,0.8556910569105691,-0.0023298978152302098,1.1838903467331737e-05,-0.709554169817043,-0.7046470398264549,0.0003434868766010178,-0.0013499576991132395,0.0017045066375414952,0.0,1.2009682532858392e-15,9.80665
